File: examples/hot axisymmetric compression example/data/04 corrected data/testID_0138.csv
level_0,index,Time(sec),Force(kN),Jaw(mm),PowAngle(deg),Power(W),Pram,PTemp,Strain,Stress(MPa),Stroke(mm),TC1(C),wedge(mm),uncorrected stress
1973,1973,165.3448,1.19292,0.00493977,0.0,0,9.03371,0.0,0.0004131037,14.5372,10.0693,366.053,-9.28895,14.5372
1974,1974,165.345,2.49372,0.0221074,0.0,0,9.00444,0.0,0.001397299,30.3522,10.0322,366.237,-9.28931,30.3522
1975,1975,165.3452,4.18338,0.0460778,0.0,0,8.97518,0.0,0.00255711,50.8312,9.9994,366.42,-9.28918,50.8312
1976,1976,165.3454,5.26714,0.0704908,0.0,0,8.94591,0.0,0.00448819,63.8886,9.97017,366.6041,-9.28906,63.8886
1977,1977,165.3456,5.74478,0.0938951,0.0,0,8.91665,0.0,0.00622349,69.5658,9.94016,366.788,-9.28802,69.5658
1978,1978,165.3458,6.06783,0.119435,0.0,0,8.88739,0.0,0.00740709,73.3438,9.9079,366.972,-9.28632,73.3438
1979,1979,165.346,6.53636,0.166735,0.0,0,8.85812,0.0,0.0104159,78.7397,9.871666,367.155,-9.28489,78.7397
1980,1980,165.3462,6.84442,0.235483,0.0,0,8.82886,0.0,0.0150988,82.0438,9.83189,367.339,-9.28477,82.0438
1981,1981,165.3464,6.86103,0.300444,0.0,0,8.79959,0.0,0.0192801,81.8574,9.78905,367.523,-9.28441,81.8574
1982,1982,165.3466,6.92787,0.346263,0.0,0,8.77033,0.0,0.022762,82.3803,9.74075,367.707,-9.28386,82.3803
1983,1983,165.3468,7.26791,0.384664,0.0,0,8.74165,0.0,0.0257647,86.1823,9.688344,367.888,-9.28381,86.1823
1984,1984,165.347,7.51223,0.4346652,0.0,0,8.71369,0.0,0.02857035,88.7544,9.63671,368.043,-9.28432,88.7544
1985,1985,165.3472,7.58885,0.48587,0.0,0,8.68585,0.0,0.0320362,89.3235,9.59068,368.198,-9.28449,89.3235
1986,1986,165.3474,7.80695,0.519117,0.0,0,8.65802,0.0,0.0350959,91.666,9.54314,368.353,-9.28341,91.666
1987,1987,165.3476,8.08804,0.540531,0.0,0,8.63019,0.0,0.03646569,94.8166,9.49979,368.509,-9.28289,94.8166
1988,1988,165.3478,8.06025,0.558843,0.0,0,8.60235,0.0,0.0374733,94.3631,9.465167,368.664,-9.28286,94.3631
1989,1989,165.348,7.78941,0.5831117,0.0,0,8.574522,0.0,0.039452,91.0288,9.43081,368.819,-9.28313,91.0288
1990,1990,165.3482,7.75313,0.625869,0.0,0,8.546689,0.0,0.0421005,90.3179,9.40004,368.974,-9.28354,90.3179
1991,1991,165.3484,7.99014,0.664121,0.0,0,8.518857,0.0,0.044558,92.8144,9.37087,369.13,-9.28354,92.8144
1992,1992,165.3486,8.18568,0.682167,0.0,0,8.49103,0.0,0.0464838,94.9579,9.33866,369.285,-9.28359,94.9579
1993,1993,165.3488,8.26749,0.706931,0.0,0,8.46319,0.0,0.04803383,95.7298,9.30618,369.44,-9.28349,95.7298
1994,1994,165.349,8.40774,0.745215,0.0,0,8.43536,0.0,0.0499809,97.0751,9.26853,369.596,-9.28221,97.0751
1995,1995,165.3492,8.56893,0.787664,0.0,0,8.40753,0.0,0.0532226,98.6213,9.22893,369.751,-9.28161,98.6213
1996,1996,165.3494,8.52497,0.846119,0.0,0,8.3797,0.0,0.05739215,97.684,9.1902,369.906,-9.28218,97.684
1997,1997,165.3496,8.28786,0.903857,0.0,0,8.35186,0.0,0.0610947,94.5528,9.14812,370.061,-9.28215,94.5528
1998,1998,165.3498,8.22085,0.937495,0.0,0,8.32403,0.0,0.0639983,93.5488,9.1053,370.217,-9.282115,93.5488
1999,1999,165.35,8.417222,0.975969,0.0,0,8.2962,0.0,0.0669427,95.503,9.06162,370.372,-9.28278,95.503
2000,2000,165.3502,8.55364,1.02326,0.0,0,8.26837,0.0,0.0697659,96.7006,9.01832,370.527,-9.28293,96.7006
2001,2001,165.3504,8.49595,1.05397,0.0,0,8.24054,0.0,0.0723351,95.8224,8.98108,370.683,-9.28231,95.8224
2002,2002,165.3506,8.465003,1.07949,0.0,0,8.21271,0.0,0.0746877,95.2863,8.94433,370.838,-9.28276,95.2863
2003,2003,165.3508,8.61192,1.10136,0.0,0,8.18487,0.0,0.0757994,96.777,8.91022,370.993,-9.28273,96.777
2004,2004,165.351,8.74249,1.112813,0.0,0,8.15704,0.0,0.0766556,98.1575,8.880434,371.148,-9.28192,98.1575
2005,2005,165.3512,8.65423,1.141,0.0,0,8.12921,0.0,0.0789725,96.9553,8.85278,371.304,-9.28214,96.9553
2006,2006,165.3514,8.5065,1.18155,0.0,0,8.10138,0.0,0.0814202,95.0014,8.82506,371.459,-9.28223,95.0014
2007,2007,165.3516,8.58005,1.20443,0.0,0,8.07355,0.0,0.0831559,95.6528,8.7955,371.614,-9.28224,95.6528
2008,2008,165.3518,8.80995,1.22598,0.0,0,8.04627,0.0,0.0852121,98.0513,8.76486,371.77,-9.28233,98.0513
2009,2009,165.352,8.94771,1.26018,0.0,0,8.01966,0.0,0.0872377,99.3194,8.734458,371.925,-9.28219,99.3194
2010,2010,165.3522,8.9447,1.29467,0.0,0,7.993176,0.0,0.0893972,99.0187,8.705452,372.08,-9.28218,99.0187
2011,2011,165.3524,8.92966,1.33665,0.0,0,7.9667,0.0,0.0928885,98.5275,8.67197,372.235,-9.28237,98.5275
2012,2012,165.3526,8.93772,1.38252,0.0,0,7.94022,0.0,0.0962366,98.2612,8.63837,372.391,-9.28226,98.2612
2013,2013,165.3528,8.88995,1.41467,0.0,0,7.91374,0.0,0.0983566,97.4884,8.60528,372.546,-9.28195,97.4884
2014,2014,165.353,8.81358,1.44512,0.0,0,7.88726,0.0,0.100967,96.4182,8.56897,372.701,-9.282465,96.4182
2015,2015,165.3532,8.81073,1.48386,0.0,0,7.86078,0.0,0.103842,96.0913,8.5334,372.857,-9.28249,96.0913
2016,2016,165.3534,8.9021,1.51779,0.0,0,7.8343,0.0,0.105925,96.826,8.49755,373.012,-9.28207,96.826
2017,2017,165.3536,8.97964,1.54258,0.0,0,7.80782,0.0,0.108161,97.4764,8.46415,373.167,-9.28202,97.4764
2018,2018,165.3538,8.99382,1.56306,0.0,0,7.78134,0.0,0.110071,97.4707,8.43346,373.322,-9.28202,97.4707
2019,2019,165.354,9.03033,1.58346,0.0,0,7.75486,0.0,0.111078,97.7067,8.40517,373.478,-9.28189,97.7067
2020,2020,165.3542,9.08046,1.6099,0.0,0,7.72838,0.0,0.113019,98.041,8.37621,373.6329,-9.28258,98.041
2021,2021,165.3544,9.055582,1.64278,0.0,0,7.7019,0.0,0.115773,97.5142,8.34646,373.788,-9.28335,97.5142
2022,2022,165.3546,8.97681,1.675451,0.0,0,7.675415,0.0,0.117774,96.4117,8.3192,373.943,-9.28336,96.4117
2023,2023,165.3548,8.98116,1.69829,0.0,0,7.64893,0.0,0.119631,96.2806,8.292346,374.099,-9.28351,96.2806
2024,2024,165.355,9.11407,1.715942,0.0,0,7.62246,0.0,0.121521,97.5659,8.2672,374.254,-9.28302,97.5659
2025,2025,165.3552,9.25384,1.74537,0.0,0,7.59598,0.0,0.123159,98.826,8.2395,374.409,-9.28221,98.826
2026,2026,165.3554,9.29072,1.78028,0.0,0,7.5695,0.0,0.125544,98.9387,8.21162,374.565,-9.28196,98.9387
2027,2027,165.3556,9.25467,1.80919,0.0,0,7.543015,0.0,0.128408,98.3227,8.18445,374.72,-9.28146,98.3227
2028,2028,165.3558,9.25132,1.84293,0.0,0,7.51654,0.0,0.13063,98.0165,8.15555,374.875,-9.28146,98.0165
2029,2029,165.356,9.28555,1.874349,0.0,0,7.49006,0.0,0.132664,98.126,8.12381,375.03,-9.28131,98.126
2030,2030,165.3562,9.269125,1.89833,0.0,0,7.46358,0.0,0.135118,97.7598,8.09257,375.186,-9.280633,97.7598
2031,2031,165.3564,9.20677,1.93339,0.0,0,7.4371,0.0,0.137584,96.8221,8.06373,375.341,-9.28102,96.8221
2032,2032,165.3566,9.20426,1.96572,0.0,0,7.410615,0.0,0.139663,96.5376,8.03368,375.496,-9.28189,96.5376
2033,2033,165.3568,9.282053,1.9801,0.0,0,7.38467,0.0,0.1414481,97.2378,8.00454,375.604,-9.28241,97.2378
2034,2034,165.357,9.349659,2.00058,0.0,0,7.35936,0.0,0.142985,97.7799,7.97751,375.522,-9.2834,97.7799
2035,2035,165.3572,9.37052,2.0283,0.0,0,7.33417,0.0,0.144426,97.7727,7.95163,375.439,-9.2834,97.7727
2036,2036,165.3574,9.38741,2.04801,0.0,0,7.30899,0.0,0.146408,97.7883,7.92412,375.357,-9.28242,97.7883
2037,2037,165.3576,9.40451,2.07737,0.0,0,7.2838,0.0,0.1488719,97.727,7.89863,375.274,-9.28256,97.727
2038,2038,165.3578,9.39957,2.10962,0.0,0,7.25862,0.0,0.150799,97.4126,7.8754,375.192,-9.28268,97.4126
2039,2039,165.358,9.39029,2.12365,0.0,0,7.23344,0.0,0.152333,97.2021,7.848958,375.11,-9.28235,97.2021
2040,2040,165.3582,9.41675,2.146642,0.0,0,7.20825,0.0,0.154407,97.2881,7.82281,375.027,-9.282,97.2881
2041,2041,165.3584,9.49263,2.181921,0.0,0,7.18307,0.0,0.156445,97.7814,7.79746,374.945,-9.2826,97.7814
2042,2042,165.3586,9.552,2.20459,0.0,0,7.15788,0.0,0.158408,98.205,7.77112,374.862,-9.28274,98.205
2043,2043,165.3588,9.56527,2.23179,0.0,0,7.1327,0.0,0.161009,98.1157,7.74308,374.78,-9.28267,98.1157
2044,2044,165.359,9.56436,2.26462,0.0,0,7.10752,0.0,0.163037,97.8338,7.7184,374.698,-9.28288,97.8338
2045,2045,165.3592,9.55926,2.28491,0.0,0,7.08233,0.0,0.164648,97.6133,7.69507,374.615,-9.28194,97.6133
2046,2046,165.3594,9.56197,2.31249,0.0,0,7.05715,0.0,0.167305,97.412,7.66945,374.533,-9.28088,97.412
2047,2047,165.3596,9.569911,2.347358,0.0,0,7.03196,0.0,0.16964,97.2033,7.64317,374.45,-9.28058,97.2033
2048,2048,165.3598,9.58559,2.3648,0.0,0,7.00678,0.0,0.17096,97.2175,7.61655,374.368,-9.28088,97.2175
2049,2049,165.36,9.61743,2.38014,0.0,0,6.981595,0.0,0.172796,97.4123,7.58964,374.286,-9.28209,97.4123
2050,2050,165.3602,9.660037,2.40632,0.0,0,6.95641,0.0,0.174571,97.6242,7.56406,374.203,-9.28324,97.6242
2051,2051,165.3604,9.680624,2.42856,0.0,0,6.93123,0.0,0.175878,97.6454,7.53925,374.121,-9.28405,97.6454
2052,2052,165.3606,9.66947,2.45225,0.0,0,6.90604,0.0,0.17824,97.3341,7.51632,374.038,-9.2848,97.3341
2053,2053,165.3608,9.65349,2.481344,0.0,0,6.88086,0.0,0.1805921,96.9293,7.4944,373.956,-9.28475,96.9293
2054,2054,165.361,9.66413,2.50233,0.0,0,6.85568,0.0,0.181849,96.86,7.468852,373.874,-9.28358,96.86
2055,2055,165.3612,9.70095,2.52222,0.0,0,6.830492,0.0,0.183814,97.0615,7.44534,373.791,-9.28291,97.0615
2056,2056,165.3614,9.76084,2.55096,0.0,0,6.80531,0.0,0.18617,97.4171,7.42065,373.709,-9.28272,97.4171
2057,2057,165.3616,9.828474,2.57836,0.0,0,6.78012,0.0,0.187859,97.8582,7.39438,373.6265,-9.28213,97.8582
2058,2058,165.3618,9.85339,2.6014,0.0,0,6.75544,0.0,0.1901134,97.9091,7.37192,373.5441,-9.28142,97.9091
2059,2059,165.362,9.84349,2.625,0.0,0,6.73137,0.0,0.192391,97.609,7.347693,373.4617,-9.2812,97.609
2060,2060,165.3622,9.82921,2.65005,0.0,0,6.7074,0.0,0.193804,97.2534,7.32047,373.3793,-9.281601,97.2534
2061,2061,165.3624,9.81655,2.67551,0.0,0,6.68344,0.0,0.195925,96.9111,7.29435,373.297,-9.28127,96.9111
2062,2062,165.3626,9.81523,2.70118,0.0,0,6.65948,0.0,0.198503,96.6792,7.27003,373.215,-9.281497,96.6792
2063,2063,165.3628,9.83423,2.72722,0.0,0,6.63552,0.0,0.200071,96.6439,7.24699,373.132,-9.2828,96.6439
2064,2064,165.363,9.87274,2.746233,0.0,0,6.61156,0.0,0.201637,96.8592,7.221149,373.05,-9.2833,96.8592
2065,2065,165.3632,9.93369,2.76152,0.0,0,6.5876,0.0,0.203554,97.3252,7.19613,372.967,-9.2826,97.3252
2066,2066,165.3634,9.98311,2.78809,0.0,0,6.56364,0.0,0.205173,97.579,7.17431,372.885,-9.2823,97.579
2067,2067,165.3636,10.0022,2.81542,0.0,0,6.53968,0.0,0.207137,97.5278,7.15275,372.803,-9.28234,97.5278
2068,2068,165.3638,10.0061,2.83509,0.0,0,6.51572,0.0,0.20951,97.3948,7.129,372.72,-9.28218,97.3948
2069,2069,165.364,9.99861,2.86183,0.0,0,6.49176,0.0,0.211352,97.0898,7.1037,372.638,-9.282074,97.0898
2070,2070,165.3642,9.99707,2.88762,0.0,0,6.467802,0.0,0.21304,96.8508,7.07909,372.555,-9.28202,96.8508
2071,2071,165.3644,10.00335,2.90465,0.0,0,6.44384,0.0,0.21517,96.7636,7.05797,372.473,-9.2813,96.7636
2072,2072,165.3646,10.03988,2.93251,0.0,0,6.41988,0.0,0.217266,96.8738,7.03505,372.391,-9.28075,96.8738
2073,2073,165.3648,10.0903,2.962471,0.0,0,6.39592,0.0,0.219131,97.0979,7.01144,372.308,-9.28159,97.0979
2074,2074,165.365,10.1287,2.97775,0.0,0,6.37196,0.0,0.22107,97.3326,6.989,372.226,-9.2822,97.3326
2075,2075,165.3652,10.1684,3.00135,0.0,0,6.348,0.0,0.2230936,97.505,6.96155,372.143,-9.28219,97.505
2076,2076,165.3654,10.1886,3.03111,0.0,0,6.32404,0.0,0.224868,97.4351,6.93493,372.061,-9.28216,97.4351
2077,2077,165.3656,10.1833,3.04832,0.0,0,6.30008,0.0,0.2268541,97.2329,6.91215,371.979,-9.28226,97.2329
2078,2078,165.3658,10.173,3.07502,0.0,0,6.27612,0.0,0.2293146,96.8977,6.88802,371.896,-9.28298,96.8977
2079,2079,165.366,10.1788,3.1057,0.0,0,6.252162,0.0,0.23115,96.6819,6.86428,371.814,-9.28281,96.6819
2080,2080,165.3662,10.2039,3.11936,0.0,0,6.2282,0.0,0.232702,96.7988,6.84199,371.731,-9.28211,96.7988
2081,2081,165.3664,10.2316,3.14219,0.0,0,6.20424,0.0,0.235017,96.8582,6.81657,371.649,-9.28278,96.8582
2082,2082,165.3666,10.2545,3.17422,0.0,0,6.18028,0.0,0.236993,96.7902,6.79091,371.567,-9.28332,96.7902
2083,2083,165.3668,10.2789,3.19107,0.0,0,6.1568,0.0,0.238656,96.8696,6.76718,371.491,-9.28291,96.8696
2084,2084,165.367,10.3082,3.21261,0.0,0,6.1339,0.0,0.241057,96.9526,6.74341,371.431,-9.28217,96.9526
2085,2085,165.3672,10.3417,3.24245,0.0,0,6.11111,0.0,0.242939,96.9992,6.71896,371.371,-9.28134,96.9992
2086,2086,165.3674,10.36669,3.25995,0.0,0,6.08832,0.0,0.244382,97.0757,6.695344,371.311,-9.28143,97.0757
2087,2087,165.3676,10.3763,3.28257,0.0,0,6.065536,0.0,0.246939,96.9617,6.67221,371.251,-9.28135,96.9617
2088,2088,165.3678,10.3843,3.31435,0.0,0,6.042748,0.0,0.249206,96.7493,6.64902,371.191,-9.28138,96.7493
2089,2089,165.368,10.4095,3.33324,0.0,0,6.01996,0.0,0.250587,96.813,6.624115,371.131,-9.28227,96.813
2090,2090,165.3682,10.4398,3.35241,0.0,0,5.99717,0.0,0.252883,96.9205,6.59908,371.071,-9.28291,96.9205
2091,2091,165.3684,10.4578,3.382803,0.0,0,5.97438,0.0,0.255245,96.8112,6.576292,371.011,-9.28341,96.8112
2092,2092,165.3686,10.4736,3.4065,0.0,0,5.9516,0.0,0.256782,96.7412,6.55425,370.951,-9.2836,96.7412
2093,2093,165.3688,10.4879,3.42844,0.0,0,5.92881,0.0,0.259229,96.6738,6.52964,370.891,-9.28367,96.6738
2094,2094,165.369,10.5075,3.45567,0.0,0,5.90602,0.0,0.261672,96.6055,6.50507,370.831,-9.28359,96.6055
2095,2095,165.3692,10.5416,3.47778,0.0,0,5.88323,0.0,0.263059,96.7157,6.48252,370.771,-9.28273,96.7157
2096,2096,165.3694,10.5721,3.49887,0.0,0,5.86044,0.0,0.2653265,96.802,6.45898,370.711,-9.28197,96.802
2097,2097,165.3696,10.5956,3.52603,0.0,0,5.83766,0.0,0.267898,96.7665,6.43347,370.651,-9.28126,96.7665
2098,2098,165.3698,10.61025,3.55202,0.0,0,5.81487,0.0,0.269492,96.6602,6.40745,370.591,-9.28119,96.6602
2099,2099,165.37,10.6213,3.57301,0.0,0,5.792079,0.0,0.271636,96.5664,6.3838,370.531,-9.28208,96.5664
2100,2100,165.3702,10.6371,3.59559,0.0,0,5.76929,0.0,0.274105,96.5014,6.36199,370.471,-9.28282,96.5014
2101,2101,165.3704,10.6642,3.62133,0.0,0,5.7465,0.0,0.275698,96.508,6.33749,370.411,-9.28339,96.508
2102,2102,165.3706,10.6903,3.64464,0.0,0,5.72372,0.0,0.2777805,96.5277,6.31485,370.351,-9.28291,96.5277
2103,2103,165.3708,10.7075,3.66688,0.0,0,5.70093,0.0,0.28036,96.4755,6.2918,370.291,-9.28265,96.4755
2104,2104,165.371,10.7389,3.69433,0.0,0,5.67814,0.0,0.282182,96.502,6.2658,370.231,-9.28325,96.502
2105,2105,165.3712,10.7774,3.7177,0.0,0,5.65535,0.0,0.284111,96.6282,6.240623,370.171,-9.28355,96.6282
2106,2106,165.3714,10.8032,3.73626,0.0,0,5.63256,0.0,0.286485,96.6855,6.21637,370.111,-9.28283,96.6855
2107,2107,165.3716,10.8204,3.76393,0.0,0,5.60978,0.0,0.288514,96.5781,6.19399,370.051,-9.28216,96.5781
2108,2108,165.3718,10.8328,3.79003,0.0,0,5.58744,0.0,0.290522,96.4425,6.17184,369.991,-9.28208,96.4425
2109,2109,165.372,10.8365,3.80795,0.0,0,5.56566,0.0,0.292899,96.3067,6.14738,369.931,-9.282,96.3067
2110,2110,165.3722,10.8416,3.83504,0.0,0,5.54397,0.0,0.294946,96.0967,6.12224,369.871,-9.28231,96.0967
2111,2111,165.3724,10.86016,3.86184,0.0,0,5.52229,0.0,0.296721,96.0073,6.09883,369.812,-9.28259,96.0073
2112,2112,165.3726,10.8931,3.87802,0.0,0,5.50061,0.0,0.299005,96.1451,6.07469,369.752,-9.282649,96.1451
2113,2113,165.3728,10.9275,3.90555,0.0,0,5.47893,0.0,0.301375,96.1866,6.05165,369.692,-9.28243,96.1866
2114,2114,165.373,10.958,3.93568,0.0,0,5.45725,0.0,0.303316,96.1672,6.02977,369.632,-9.28219,96.1672
2115,2115,165.3732,10.9866,3.95047,0.0,0,5.43557,0.0,0.305377,96.2772,6.00653,369.572,-9.28215,96.2772
2116,2116,165.3734,11.0138,3.9739,0.0,0,5.41389,0.0,0.307699,96.2905,5.982305,369.512,-9.28241,96.2905
2117,2117,165.3736,11.0307,4.0037,0.0,0,5.39221,0.0,0.309538,96.1514,5.95817,369.452,-9.282403,96.1514
2118,2118,165.3738,11.04131,4.0193,0.0,0,5.37053,0.0,0.311475,96.094,5.93507,369.392,-9.282795,96.094
2119,2119,165.374,11.05323,4.04257,0.0,0,5.34885,0.0,0.314006,95.9737,5.9112,369.3317,-9.28282,95.9737
2120,2120,165.3742,11.0676,4.07304,0.0,0,5.32717,0.0,0.315924,95.8041,5.88587,369.2717,-9.28281,95.8041
2121,2121,165.3744,11.09,4.08836,0.0,0,5.30549,0.0,0.317649,95.8504,5.8626,369.212,-9.28324,95.8504
2122,2122,165.3746,11.1178,4.11087,0.0,0,5.28381,0.0,0.320295,95.8724,5.83844,369.152,-9.28323,95.8724
2123,2123,165.3748,11.1429,4.14266,0.0,0,5.26213,0.0,0.322428,95.7803,5.81672,369.092,-9.2828,95.7803
2124,2124,165.375,11.1729,4.15953,0.0,0,5.24045,0.0,0.324104,95.874,5.79454,369.0318,-9.282198,95.874
2125,2125,165.3752,11.2038,4.18102,0.0,0,5.21877,0.0,0.326793,95.9289,5.76908,368.972,-9.28202,95.9289
2126,2126,165.3754,11.2344,4.21221,0.0,0,5.19709,0.0,0.329016,95.8854,5.74598,368.912,-9.28189,95.8854
2127,2127,165.3756,11.2569,4.23026,0.0,0,5.17541,0.0,0.330592,95.9002,5.7235,368.852,-9.28149,95.9002
2128,2128,165.3758,11.2689,4.25215,0.0,0,5.15373,0.0,0.333334,95.7878,5.6996,368.792,-9.281476,95.7878
2129,2129,165.376,11.2844,4.28409,0.0,0,5.13205,0.0,0.335829,95.6056,5.6752,368.7319,-9.28219,95.6056
2130,2130,165.3762,11.29819,4.30437,0.0,0,5.11037,0.0,0.337362,95.5223,5.653,368.672,-9.28242,95.5223
2131,2131,165.3764,11.3183,4.324,0.0,0,5.08869,0.0,0.339928,95.4985,5.62908,368.612,-9.28256,95.4985
2132,2132,165.3766,11.3429,4.35234,0.0,0,5.06701,0.0,0.342426,95.4257,5.60503,368.552,-9.28276,95.4257
2133,2133,165.3768,11.3708,4.37339,0.0,0,5.04577,0.0,0.343817,95.4516,5.58282,368.428,-9.28252,95.4516
2134,2134,165.377,11.4021,4.39127,0.0,0,5.02505,0.0,0.346159,95.5364,5.56036,368.2081,-9.28254,95.5364
2135,2135,165.3772,11.4257,4.41619,0.0,0,5.00442,0.0,0.348699,95.4861,5.53723,367.988,-9.28265,95.4861
2136,2136,165.3774,11.4499,4.43851,0.0,0,4.9838,0.0,0.3500897,95.4657,5.51207,367.768,-9.2823,95.4657
2137,2137,165.3776,11.4801,4.45861,0.0,0,4.96318,0.0,0.352411,95.516,5.48744,367.548,-9.28232,95.516
2138,2138,165.3778,11.5004,4.484,0.0,0,4.942564,0.0,0.355205,95.4298,5.46467,367.329,-9.28283,95.4298
2139,2139,165.378,11.5071,4.50987,0.0,0,4.92194,0.0,0.356938,95.2264,5.44172,367.109,-9.28245,95.2264
2140,2140,165.3782,11.5128,4.53126,0.0,0,4.90132,0.0,0.359207,95.0582,5.4187,366.889,-9.282382,95.0582
2141,2141,165.3784,11.523,4.55292,0.0,0,4.8807,0.0,0.361841,94.9247,5.39721,366.669,-9.28243,94.9247
2142,2142,165.3786,11.5543,4.57872,0.0,0,4.86008,0.0,0.3635222,94.9228,5.37439,366.449,-9.28172,94.9228
2143,2143,165.3788,11.5942,4.60131,0.0,0,4.83946,0.0,0.365648,95.0219,5.35074,366.229,-9.28169,95.0219
2144,2144,165.379,11.6247,4.62052,0.0,0,4.81884,0.0,0.368288,95.0766,5.32928,366.009,-9.28175,95.0766
2145,2145,165.3792,11.6571,4.64634,0.0,0,4.798224,0.0,0.370119,95.0789,5.30817,365.789,-9.28219,95.0789
2146,2146,165.3794,11.6869,4.66901,0.0,0,4.7776,0.0,0.3720783,95.0909,5.28562,365.5694,-9.28233,95.0909
2147,2147,165.3796,11.706,4.68646,0.0,0,4.75698,0.0,0.374685,95.0678,5.26299,365.349,-9.28207,95.0678
2148,2148,165.3798,11.7151,4.71364,0.0,0,4.73636,0.0,0.376814,94.864,5.24197,365.13,-9.28259,94.864
2149,2149,165.38,11.7192,4.73853,0.0,0,4.715744,0.0,0.378794,94.6428,5.21932,364.9097,-9.28287,94.6428
2150,2150,165.3802,11.7245,4.75393,0.0,0,4.69512,0.0,0.381233,94.5275,5.19663,364.69,-9.28342,94.5275
2151,2151,165.3804,11.7492,4.78029,0.0,0,4.6745,0.0,0.383384,94.4565,5.17302,364.47,-9.28388,94.4565
2152,2152,165.3806,11.7822,4.80812,0.0,0,4.65388,0.0,0.385357,94.4354,5.149734,364.25,-9.2834,94.4354
2153,2153,165.3808,11.8194,4.82248,0.0,0,4.63326,0.0,0.387717,94.5858,5.12782,364.03,-9.28284,94.5858
2154,2154,165.381,11.8674,4.84692,0.0,0,4.61264,0.0,0.390116,94.7167,5.10461,363.81,-9.28224,94.7167
2155,2155,165.3812,11.8961,4.87639,0.0,0,4.59202,0.0,0.3920376,94.639,5.0804,363.59,-9.28207,94.639
2156,2156,165.3814,11.9109,4.89024,0.0,0,4.571404,0.0,0.39417,94.613,5.05791,363.37,-9.2826,94.613
2157,2157,165.3816,11.922,4.9133,0.0,0,4.55078,0.0,0.396857,94.4608,5.03737,363.151,-9.28262,94.4608
2158,2158,165.3818,11.9281,4.94378,0.0,0,4.53058,0.0,0.398901,94.1916,5.01424,362.931,-9.28208,94.1916
2159,2159,165.382,11.9424,4.95709,0.0,0,4.51087,0.0,0.400726,94.1657,4.99134,362.711,-9.28201,94.1657
2160,2160,165.3822,11.9626,4.97784,0.0,0,4.49125,0.0,0.403314,94.1084,4.970202,362.491,-9.28142,94.1084
2161,2161,165.3824,11.9933,5.00719,0.0,0,4.47163,0.0,0.405308,94.0426,4.94954,362.271,-9.28143,94.0426
2162,2162,165.3826,12.028,5.02124,0.0,0,4.45201,0.0,0.40705,94.1671,4.9289,362.051,-9.2821,94.1671
2163,2163,165.3828,12.05731,5.04247,0.0,0,4.4324,0.0,0.409894,94.1726,4.90787,361.831,-9.28223,94.1726
2164,2164,165.383,12.0908,5.0741,0.0,0,4.41278,0.0,0.412089,94.1003,4.88322,361.611,-9.28255,94.1003
2165,2165,165.3832,12.1239,5.09141,0.0,0,4.39317,0.0,0.413787,94.1743,4.86221,361.391,-9.28263,94.1743
2166,2166,165.3834,12.1475,5.11126,0.0,0,4.37355,0.0,0.416728,94.1466,4.84173,361.172,-9.28222,94.1466
2167,2167,165.3836,12.159,5.14121,0.0,0,4.35393,0.0,0.419188,93.9175,4.81962,360.952,-9.28202,93.9175
2168,2168,165.3838,12.1641,5.158916,0.0,0,4.33432,0.0,0.420679,93.7691,4.79845,360.732,-9.28172,93.7691
2169,2169,165.384,12.1797,5.17644,0.0,0,4.314702,0.0,0.423319,93.7022,4.77613,360.512,-9.28171,93.7022
2170,2170,165.3842,12.2042,5.20423,0.0,0,4.29509,0.0,0.425814,93.5949,4.75409,360.292,-9.28175,93.5949
2171,2171,165.3844,12.2327,5.2228,0.0,0,4.27547,0.0,0.427091,93.6147,4.72969,360.072,-9.28177,93.6147
2172,2172,165.3846,12.2708,5.2394,0.0,0,4.25585,0.0,0.4296,93.7284,4.70779,359.852,-9.28188,93.7284
2173,2173,165.3848,12.3118,5.26475,0.0,0,4.23624,0.0,0.432259,93.7686,4.68817,359.632,-9.28155,93.7686
2174,2174,165.385,12.3431,5.28546,0.0,0,4.21662,0.0,0.433568,93.7837,4.668201,359.412,-9.28112,93.7837
2175,2175,165.3852,12.36078,5.30385,0.0,0,4.19701,0.0,0.436005,93.7189,4.64771,359.1925,-9.281354,93.7189
2176,2176,165.3854,12.3805,5.32737,0.0,0,4.17739,0.0,0.438755,93.6136,4.62502,358.9726,-9.28185,93.6136
2177,2177,165.3856,12.3938,5.349174,0.0,0,4.15777,0.0,0.440132,93.4781,4.60259,358.753,-9.282217,93.4781
2178,2178,165.3858,12.3994,5.36796,0.0,0,4.13816,0.0,0.442413,93.3165,4.58225,358.533,-9.28228,93.3165
2179,2179,165.386,12.4183,5.38981,0.0,0,4.11854,0.0,0.445264,93.2215,4.56205,358.313,-9.282033,93.2215
2180,2180,165.3862,12.4506,5.414103,0.0,0,4.09893,0.0,0.446939,93.1998,4.54101,358.093,-9.28232,93.1998
2181,2181,165.3864,12.4874,5.43348,0.0,0,4.07931,0.0,0.449114,93.2634,4.52108,357.873,-9.28228,93.2634
2182,2182,165.3866,12.5165,5.45199,0.0,0,4.05969,0.0,0.451911,93.2782,4.50063,357.653,-9.28205,93.2782
2183,2183,165.3868,12.54425,5.47773,0.0,0,4.04047,0.0,0.453752,93.2023,4.47933,357.457,-9.28189,93.2023
2184,2184,165.387,12.57796,5.49904,0.0,0,4.02173,0.0,0.45583,93.2184,4.45718,357.285,-9.28153,93.2184
2185,2185,165.3872,12.6027,5.51414,0.0,0,4.00307,0.0,0.458538,93.235,4.43537,357.112,-9.2817,93.235
2186,2186,165.3874,12.6191,5.53872,0.0,0,3.98441,0.0,0.460404,93.0851,4.41371,356.94,-9.28201,93.0851
2187,2187,165.3876,12.63735,5.560575,0.0,0,3.96575,0.0,0.462224,92.9781,4.39366,356.767,-9.2819,92.9781
2188,2188,165.3878,12.664,5.57464,0.0,0,3.9471,0.0,0.464788,93.0181,4.374404,356.595,-9.28193,93.0181
2189,2189,165.388,12.6882,5.59948,0.0,0,3.92844,0.0,0.466911,92.9201,4.35341,356.423,-9.2814,92.9201
2190,2190,165.3882,12.7035,5.62276,0.0,0,3.90979,0.0,0.468708,92.7734,4.33405,356.25,-9.28064,92.7734
2191,2191,165.3884,12.7349,5.63474,0.0,0,3.89113,0.0,0.471017,92.869,4.31358,356.078,-9.28044,92.869
2192,2192,165.3886,12.7805,5.65783,0.0,0,3.87247,0.0,0.473262,92.9432,4.29216,355.905,-9.28043,92.9432
2193,2193,165.3888,12.8155,5.68435,0.0,0,3.85382,0.0,0.475139,92.9005,4.2711,355.733,-9.28062,92.9005
2194,2194,165.389,12.84083,5.69694,0.0,0,3.83516,0.0,0.477472,92.9427,4.24886,355.56,-9.28149,92.9427
2195,2195,165.3892,12.8627,5.71949,0.0,0,3.81651,0.0,0.48012,92.8473,4.22829,355.388,-9.28216,92.8473
2196,2196,165.3894,12.8853,5.74813,0.0,0,3.79785,0.0,0.482103,92.6873,4.20848,355.215,-9.28273,92.6873
2197,2197,165.3896,12.9032,5.76056,0.0,0,3.77919,0.0,0.484123,92.6755,4.18608,355.043,-9.28284,92.6755
2198,2198,165.3898,12.9144,5.78183,0.0,0,3.76054,0.0,0.4869214,92.5156,4.166481,354.871,-9.28258,92.5156
2199,2199,165.39,12.9424,5.81006,0.0,0,3.74188,0.0,0.488964,92.3961,4.14885,354.698,-9.28249,92.3961
2200,2200,165.3902,12.9793,5.82104,0.0,0,3.72323,0.0,0.490631,92.5347,4.12852,354.526,-9.28202,92.5347
2201,2201,165.3904,13.0121,5.8397,0.0,0,3.70457,0.0,0.493385,92.5559,4.10684,354.353,-9.28154,92.5559
2202,2202,165.3906,13.0429,5.86722,0.0,0,3.68591,0.0,0.495369,92.4607,4.08797,354.181,-9.28156,92.4607
2203,2203,165.3908,13.08,5.8788,0.0,0,3.66726,0.0,0.496765,92.5908,4.06858,354.008,-9.28171,92.5908
2204,2204,165.391,13.1199,5.89715,0.0,0,3.6486,0.0,0.499642,92.6625,4.046411,353.836,-9.28113,92.6625
2205,2205,165.3912,13.1492,5.92655,0.0,0,3.62995,0.0,0.50198,92.5311,4.02627,353.6636,-9.28121,92.5311
2206,2206,165.3914,13.1668,5.94134,0.0,0,3.61129,0.0,0.503419,92.4839,4.006628,353.491,-9.281765,92.4839
2207,2207,165.3916,13.1831,5.959,0.0,0,3.59263,0.0,0.50631,92.395,3.98563,353.319,-9.281826,92.395
2208,2208,165.3918,13.2115,5.987432,0.0,0,3.57435,0.0,0.508849,92.2647,3.96544,353.1463,-9.28138,92.2647
2209,2209,165.392,13.2455,6.00437,0.0,0,3.55652,0.0,0.51024,92.3056,3.94645,352.974,-9.28152,92.3056
2210,2210,165.3922,13.2711,6.02007,0.0,0,3.538765,0.0,0.513022,92.3015,3.93035,352.801,-9.28202,92.3015
2211,2211,165.3924,13.296,6.04554,0.0,0,3.52102,0.0,0.515663,92.1778,3.9112,352.629,-9.282053,92.1778
2212,2212,165.3926,13.3267,6.063437,0.0,0,3.50327,0.0,0.51687,92.1818,3.88868,352.4566,-9.2821,92.1818
2213,2213,165.3928,13.3594,6.07909,0.0,0,3.48552,0.0,0.519431,92.2246,3.86956,352.284,-9.28218,92.2246
2214,2214,165.393,13.3923,6.10294,0.0,0,3.46777,0.0,0.522278,92.1717,3.85019,352.112,-9.28213,92.1717
2215,2215,165.3932,13.4212,6.12209,0.0,0,3.45002,0.0,0.523575,92.1451,3.82942,351.9393,-9.28189,92.1451
2216,2216,165.3934,13.4488,6.13671,0.0,0,3.432277,0.0,0.525804,92.1628,3.81035,351.767,-9.2816,92.1628
2217,2217,165.3936,13.471,6.15643,0.0,0,3.41453,0.0,0.52843,92.0816,3.79085,351.594,-9.28116,92.0816
2218,2218,165.3938,13.4893,6.17704,0.0,0,3.39678,0.0,0.529754,91.9634,3.77142,351.422,-9.28123,91.9634
2219,2219,165.394,13.50957,6.19406,0.0,0,3.37903,0.0,0.532078,91.8997,3.75306,351.25,-9.28162,91.8997
2220,2220,165.3942,13.5364,6.21353,0.0,0,3.36128,0.0,0.535042,91.851,3.73408,351.077,-9.28183,91.851
2221,2221,165.3944,13.5727,6.23647,0.0,0,3.34354,0.0,0.536647,91.8247,3.71559,350.905,-9.28203,91.8247
2222,2222,165.3946,13.6153,6.25479,0.0,0,3.32579,0.0,0.538789,91.8941,3.69693,350.732,-9.28204,91.8941
2223,2223,165.3948,13.6579,6.27152,0.0,0,3.30804,0.0,0.541752,91.9809,3.67812,350.56,-9.28204,91.9809
2224,2224,165.395,13.698,6.295774,0.0,0,3.29029,0.0,0.543614,91.9596,3.65948,350.387,-9.28158,91.9596
2225,2225,165.3952,13.729,6.31501,0.0,0,3.27254,0.0,0.545479,91.9366,3.63892,350.215,-9.28095,91.9366
2226,2226,165.3954,13.7519,6.32728,0.0,0,3.2548,0.0,0.548088,91.9421,3.61951,350.043,-9.28064,91.9421
2227,2227,165.3956,13.7695,6.34982,0.0,0,3.23705,0.0,0.550021,91.7872,3.60272,349.87,-9.28069,91.7872
2228,2228,165.3958,13.7871,6.369597,0.0,0,3.2193,0.0,0.551739,91.6656,3.58342,349.698,-9.28054,91.6656
2229,2229,165.396,13.8063,6.37991,0.0,0,3.20155,0.0,0.554233,91.6682,3.5638,349.525,-9.28032,91.6682
2230,2230,165.3962,13.8293,6.40296,0.0,0,3.1838,0.0,0.556428,91.5412,3.54537,349.353,-9.280467,91.5412
2231,2231,165.3964,13.8693,6.42703,0.0,0,3.16606,0.0,0.5582,91.5132,3.52734,349.18,-9.28067,91.5132
2232,2232,165.3966,13.9167,6.437367,0.0,0,3.14831,0.0,0.560629,91.6993,3.50968,349.008,-9.28127,91.6993
2233,2233,165.3968,13.9647,6.45829,0.0,0,3.13092,0.0,0.563087,91.7598,3.49213,348.934,-9.28159,91.7598
2234,2234,165.397,14.005,6.48383,0.0,0,3.11395,0.0,0.564857,91.7102,3.47316,348.924,-9.28123,91.7102
2235,2235,165.3972,14.0305,6.49432,0.0,0,3.09706,0.0,0.567023,91.7482,3.453675,348.915,-9.281311,91.7482
2236,2236,165.3974,14.05096,6.51477,0.0,0,3.08018,0.0,0.569771,91.63,3.43789,348.906,-9.28182,91.63
2237,2237,165.3976,14.0687,6.54146,0.0,0,3.06329,0.0,0.57166,91.4162,3.42035,348.897,-9.281744,91.4162
2238,2238,165.3978,14.09,6.55054,0.0,0,3.04641,0.0,0.573425,91.442,3.39947,348.888,-9.28105,91.442
2239,2239,165.398,14.1165,6.56753,0.0,0,3.02953,0.0,0.576114,91.4037,3.38088,348.879,-9.28062,91.4037
2240,2240,165.3982,14.15075,6.59378,0.0,0,3.01264,0.0,0.578039,91.2995,3.36195,348.8696,-9.28088,91.2995
2241,2241,165.3984,14.1936,6.60377,0.0,0,2.99576,0.0,0.579585,91.4516,3.34429,348.86,-9.28081,91.4516
2242,2242,165.3986,14.2363,6.61972,0.0,0,2.97887,0.0,0.582396,91.5272,3.32723,348.851,-9.2805,91.5272
2243,2243,165.3988,14.2732,6.64628,0.0,0,2.96199,0.0,0.584447,91.4317,3.309288,348.842,-9.28057,91.4317
2244,2244,165.399,14.3043,6.65763,0.0,0,2.94511,0.0,0.585821,91.4883,3.29273,348.833,-9.28057,91.4883
2245,2245,165.3992,14.3335,6.67293,0.0,0,2.92822,0.0,0.588772,91.4829,3.27489,348.824,-9.28049,91.4829
2246,2246,165.3994,14.3637,6.69978,0.0,0,2.91134,0.0,0.591107,91.3367,3.25536,348.815,-9.280715,91.3367
2247,2247,165.3996,14.3899,6.7136,0.0,0,2.89445,0.0,0.592359,91.3283,3.2383,348.806,-9.28075,91.3283
2248,2248,165.3998,14.4053,6.7271,0.0,0,2.87757,0.0,0.595238,91.2555,3.22156,348.797,-9.28054,91.2555
2249,2249,165.4,14.4298,6.75232,0.0,0,2.86069,0.0,0.597812,91.0913,3.204,348.787,-9.280509,91.0913
2250,2250,165.4002,14.4677,6.7683,0.0,0,2.8438,0.0,0.5989272,91.1271,3.18678,348.778,-9.28049,91.1271
2251,2251,165.4004,14.5146,6.78098,0.0,0,2.82692,0.0,0.60151,91.2611,3.16746,348.769,-9.280488,91.2611
2252,2252,165.4006,14.56518,6.8034,0.0,0,2.810034,0.0,0.604179,91.2924,3.14937,348.76,-9.28069,91.2924
2253,2253,165.4008,14.6032,6.82026,0.0,0,2.79315,0.0,0.605279,91.3147,3.13167,348.751,-9.28075,91.3147
2254,2254,165.401,14.637,6.8328,0.0,0,2.77627,0.0,0.607672,91.3646,3.11357,348.742,-9.28108,91.3646
2255,2255,165.4012,14.6572,6.852921,0.0,0,2.75938,0.0,0.610508,91.2316,3.09657,348.733,-9.28109,91.2316
2256,2256,165.4014,14.6758,6.87153,0.0,0,2.7425,0.0,0.611767,91.1072,3.07806,348.723,-9.28064,91.1072
2257,2257,165.4016,14.7012,6.8855,0.0,0,2.72561,0.0,0.614055,91.0848,3.05878,348.714,-9.28072,91.0848
2258,2258,165.4018,14.7294,6.90457,0.0,0,2.70907,0.0,0.616971,91.0123,3.04279,348.705,-9.2808,91.0123
2259,2259,165.402,14.7632,6.92538,0.0,0,2.69293,0.0,0.618394,90.9513,3.02598,348.696,-9.28065,90.9513
2260,2260,165.4022,14.79743,6.93949,0.0,0,2.67687,0.0,0.620504,90.9788,3.00825,348.687,-9.28062,90.9788
2261,2261,165.4024,14.8484,6.954071,0.0,0,2.66081,0.0,0.623302,91.1018,2.992801,348.678,-9.28062,91.1018
2262,2262,165.4026,14.898,6.97463,0.0,0,2.64475,0.0,0.624696,91.1368,2.97694,348.669,-9.28081,91.1368
2263,2263,165.4028,14.9447,6.98941,0.0,0,2.62869,0.0,0.626469,91.2288,2.95904,348.66,-9.28086,91.2288
2264,2264,165.403,14.9866,7.00141,0.0,0,2.61263,0.0,0.629194,91.3264,2.94282,348.65,-9.28054,91.3264
2265,2265,165.4032,15.0086,7.02357,0.0,0,2.59657,0.0,0.630963,91.1682,2.92545,348.641,-9.28056,91.1682
2266,2266,165.4034,15.028,7.0425,0.0,0,2.58051,0.0,0.632872,91.0355,2.90765,348.632,-9.28056,91.0355
2267,2267,165.4036,15.0556,7.05415,0.0,0,2.56445,0.0,0.63566,91.0487,2.89086,348.623,-9.2804,91.0487
2268,2268,165.4038,15.0857,7.07681,0.0,0,2.54839,0.0,0.637809,90.9304,2.87277,348.614,-9.28031,90.9304
2269,2269,165.404,15.1228,7.09723,0.0,0,2.53233,0.0,0.639652,90.8826,2.85582,348.605,-9.28044,90.8826
2270,2270,165.4042,15.1669,7.10552,0.0,0,2.51627,0.0,0.6420933,91.0368,2.83864,348.596,-9.28026,91.0368
2271,2271,165.4044,15.211,7.12563,0.0,0,2.50021,0.0,0.644233,91.0326,2.82211,348.586,-9.28021,91.0326
2272,2272,165.4046,15.2539,7.14791,0.0,0,2.48415,0.0,0.645883,90.9906,2.80876,348.5773,-9.28048,90.9906
2273,2273,165.4048,15.2997,7.15596,0.0,0,2.46809,0.0,0.648159,91.1552,2.79301,348.568,-9.28048,91.1552
2274,2274,165.405,15.34051,7.17523,0.0,0,2.45203,0.0,0.65071,91.1387,2.77694,348.559,-9.279995,91.1387
2275,2275,165.4052,15.3703,7.19946,0.0,0,2.43597,0.0,0.652478,90.9882,2.75917,348.5499,-9.27938,90.9882
2276,2276,165.4054,15.3998,7.20734,0.0,0,2.41991,0.0,0.6544345,91.0561,2.7406,348.541,-9.27965,91.0561
2277,2277,165.4056,15.4285,7.22426,0.0,0,2.40385,0.0,0.657153,90.996,2.72611,348.532,-9.27951,90.996
2278,2278,165.4058,15.4611,7.24821,0.0,0,2.38779,0.0,0.658912,90.8626,2.71011,348.522,-9.27897,90.8626
2279,2279,165.406,15.5027,7.25562,0.0,0,2.37173,0.0,0.660533,91.0063,2.69294,348.513,-9.27953,91.0063
2280,2280,165.4062,15.5565,7.27251,0.0,0,2.35567,0.0,0.663517,91.0907,2.67544,348.504,-9.280201,91.0907
2281,2281,165.4064,15.6096,7.29881,0.0,0,2.33961,0.0,0.665495,91.0409,2.65822,348.495,-9.280571,91.0409
2282,2282,165.4066,15.6511,7.3064,0.0,0,2.32355,0.0,0.666883,91.178,2.641,348.486,-9.280405,91.178
2283,2283,165.4068,15.6923,7.32025,0.0,0,2.30781,0.0,0.669869,91.2271,2.62569,348.3728,-9.2802,91.2271
2284,2284,165.407,15.7293,7.34587,0.0,0,2.29246,0.0,0.67202,91.0876,2.60947,348.215,-9.27977,91.0876
2285,2285,165.4072,15.7569,7.35679,0.0,0,2.27718,0.0,0.673269,91.0959,2.59062,348.057,-9.27972,91.0959
2286,2286,165.4074,15.784,7.3708,0.0,0,2.2619,0.0,0.6763162,91.0581,2.57276,347.9,-9.2802,91.0581
2287,2287,165.4076,15.8136,7.39638,0.0,0,2.246628,0.0,0.678808,90.8725,2.55697,347.742,-9.27952,90.8725
2288,2288,165.4078,15.8514,7.40923,0.0,0,2.23135,0.0,0.679848,90.9108,2.54121,347.584,-9.2797,90.9108
2289,2289,165.408,15.9005,7.42074,0.0,0,2.21608,0.0,0.682635,91.031,2.523416,347.427,-9.28107,91.031
2290,2290,165.4082,15.9521,7.44393,0.0,0,2.2008,0.0,0.685387,91.0012,2.50519,347.269,-9.2804,91.0012
2291,2291,165.4084,16.0024,7.45874,0.0,0,2.18552,0.0,0.686516,91.0796,2.49052,347.111,-9.279705,91.0796
2292,2292,165.4086,16.0481,7.47022,0.0,0,2.17025,0.0,0.689296,91.1771,2.47474,346.953,-9.27986,91.1771
2293,2293,165.4088,16.0841,7.49148,0.0,0,2.15497,0.0,0.692152,91.0808,2.45804,346.796,-9.27926,91.0808
2294,2294,165.409,16.1211,7.50773,0.0,0,2.1397,0.0,0.692977,91.06,2.44198,346.638,-9.27908,91.06
2295,2295,165.4092,16.15695,7.519052,0.0,0,2.12442,0.0,0.695279,91.1011,2.42607,346.48,-9.27845,91.1011
2296,2296,165.4094,16.189,7.53713,0.0,0,2.10914,0.0,0.698361,91.0241,2.40971,346.3226,-9.2784,91.0241
2297,2297,165.4096,16.2255,7.55501,0.0,0,2.09387,0.0,0.699562,90.9737,2.39357,346.165,-9.2795,90.9737
2298,2298,165.4098,16.2705,7.5678,0.0,0,2.07859,0.0,0.701728,91.0433,2.37823,346.0072,-9.280365,91.0433
2299,2299,165.41,16.3111,7.58376,0.0,0,2.06332,0.0,0.704751,91.0411,2.36149,345.849,-9.28127,91.0411
2300,2300,165.4102,16.3598,7.60348,0.0,0,2.04804,0.0,0.706102,91.029,2.34456,345.692,-9.281702,91.029
2301,2301,165.4104,16.4131,7.61726,0.0,0,2.03276,0.0,0.708091,91.1259,2.33069,345.534,-9.281024,91.1259
2302,2302,165.4106,16.4547,7.63007,0.0,0,2.01749,0.0,0.711059,91.1716,2.31607,345.376,-9.28047,91.1716
2303,2303,165.4108,16.5034,7.65054,0.0,0,2.00221,0.0,0.712708,91.1435,2.29857,345.219,-9.2797,91.1435
2304,2304,165.411,16.5504,7.66651,0.0,0,1.98694,0.0,0.714563,91.1706,2.28259,345.061,-9.27953,91.1706
2305,2305,165.4112,16.5897,7.67737,0.0,0,1.97166,0.0,0.717492,91.2281,2.267777,344.903,-9.27889,91.2281
2306,2306,165.4114,16.6262,7.69843,0.0,0,1.95638,0.0,0.719451,91.1204,2.25123,344.746,-9.27882,91.1204
2307,2307,165.4116,16.6713,7.7166,0.0,0,1.94111,0.0,0.721155,91.1009,2.23426,344.588,-9.27944,91.1009
2308,2308,165.4118,16.7195,7.72482,0.0,0,1.92614,0.0,0.723939,91.2434,2.2202,344.43,-9.27956,91.2434
2309,2309,165.412,16.7694,7.74392,0.0,0,1.91154,0.0,0.726089,91.2332,2.205934,344.272,-9.28004,91.2332
2310,2310,165.4122,16.822,7.76381,0.0,0,1.897,0.0,0.727628,91.2249,2.19005,344.115,-9.28015,91.2249
2311,2311,165.4124,16.8683,7.770782,0.0,0,1.88247,0.0,0.730057,91.3722,2.17274,343.957,-9.28026,91.3722
2312,2312,165.4126,16.9224,7.78954,0.0,0,1.86794,0.0,0.732459,91.3857,2.15732,343.799,-9.27985,91.3857
2313,2313,165.4128,16.976,7.81246,0.0,0,1.8534,0.0,0.73419,91.332,2.14275,343.6416,-9.27983,91.332
2314,2314,165.413,17.0153,7.81922,0.0,0,1.83887,0.0,0.73644,91.4421,2.12683,343.484,-9.27974,91.4421
2315,2315,165.4132,17.0518,7.836987,0.0,0,1.82434,0.0,0.739149,91.3714,2.109005,343.326,-9.27915,91.3714
2316,2316,165.4134,17.0879,7.86114,0.0,0,1.80981,0.0,0.74092,91.201,2.09166,343.168,-9.279459,91.201
2317,2317,165.4136,17.123,7.86735,0.0,0,1.79528,0.0,0.742846,91.2947,2.07754,343.011,-9.27948,91.2947
2318,2318,165.4138,17.1642,7.88306,0.0,0,1.78074,0.0,0.745898,91.2769,2.06497,342.853,-9.279645,91.2769
2319,2319,165.414,17.2151,7.90802,0.0,0,1.76621,0.0,0.74787,91.1686,2.05025,342.695,-9.27985,91.1686
2320,2320,165.4142,17.2688,7.91585,0.0,0,1.75168,0.0,0.749469,91.3338,2.03375,342.538,-9.27936,91.3338
2321,2321,165.4144,17.3273,7.93083,0.0,0,1.73715,0.0,0.752686,91.4148,2.01765,342.38,-9.27934,91.4148
2322,2322,165.4146,17.3895,7.95532,0.0,0,1.72262,0.0,0.7547853,91.3673,2.00108,342.222,-9.27976,91.3673
2323,2323,165.4148,17.44562,7.96304,0.0,0,1.70808,0.0,0.75601,91.5434,1.9842,342.065,-9.27959,91.5434
2324,2324,165.415,17.4946,7.97537,0.0,0,1.69355,0.0,0.759047,91.6101,1.96947,341.907,-9.27828,91.6101
2325,2325,165.4152,17.5371,7.9997,0.0,0,1.67902,0.0,0.761297,91.4567,1.95434,341.749,-9.2785,91.4567
2326,2326,165.4154,17.5762,8.00949,0.0,0,1.66449,0.0,0.762368,91.5088,1.93851,341.5914,-9.27921,91.5088
2327,2327,165.4156,17.6168,8.02063,0.0,0,1.64996,0.0,0.765431,91.5472,1.92511,341.434,-9.27891,91.5472
2328,2328,165.4158,17.66497,8.04493,0.0,0,1.63542,0.0,0.768199,91.4189,1.90946,341.276,-9.27888,91.4189
2329,2329,165.416,17.7163,8.0583,0.0,0,1.62089,0.0,0.769315,91.4756,1.8918,341.118,-9.27907,91.4756
2330,2330,165.4162,17.7722,8.06865,0.0,0,1.60636,0.0,0.772198,91.6022,1.8763,340.961,-9.27912,91.6022
2331,2331,165.4164,17.83976,8.09046,0.0,0,1.59183,0.0,0.775093,91.6071,1.86193,340.803,-9.27939,91.6071
2332,2332,165.4166,17.9056,8.10577,0.0,0,1.5773,0.0,0.7760582,91.7037,1.84656,340.645,-9.27941,91.7037
2333,2333,165.4168,17.9557,8.11618,0.0,0,1.56305,0.0,0.778813,91.7954,1.83191,340.571,-9.2787,91.7954
2334,2334,165.417,17.9947,8.13493,0.0,0,1.54916,0.0,0.781924,91.6973,1.81681,340.517,-9.27808,91.6973
2335,2335,165.4172,18.0289,8.15128,0.0,0,1.53534,0.0,0.782803,91.6111,1.8,340.464,-9.2783,91.6111
2336,2336,165.4174,18.0594,8.16234,0.0,0,1.52151,0.0,0.785147,91.5899,1.78491,340.41,-9.27856,91.5899
2337,2337,165.4176,18.0991,8.17784,0.0,0,1.50769,0.0,0.788283,91.5441,1.77111,340.356,-9.27858,91.5441
2338,2338,165.4178,18.1543,8.19475,0.0,0,1.49387,0.0,0.7893821,91.5522,1.7558,340.303,-9.278451,91.5522
2339,2339,165.418,18.2174,8.20647,0.0,0,1.48004,0.0,0.791482,91.6823,1.74015,340.249,-9.27819,91.6823
2340,2340,165.4182,18.2881,8.22006,0.0,0,1.46622,0.0,0.79465,91.8185,1.7288,340.196,-9.27806,91.8185
2341,2341,165.4184,18.357,8.23896,0.0,0,1.45239,0.0,0.795995,91.8588,1.7125,340.142,-9.27818,91.8588
2342,2342,165.4186,18.4151,8.25122,0.0,0,1.43857,0.0,0.7977761,91.9503,1.69754,340.0885,-9.27813,91.9503
2343,2343,165.4188,18.4672,8.262208,0.0,0,1.42475,0.0,0.800838,92.031,1.68549,340.035,-9.27771,92.031
2344,2344,165.419,18.5104,8.28356,0.0,0,1.41092,0.0,0.80269,91.8978,1.66826,339.981,-9.27801,91.8978
2345,2345,165.4192,18.5457,8.29922,0.0,0,1.3971,0.0,0.8045131,91.8169,1.65232,339.928,-9.27861,91.8169
2346,2346,165.4194,18.5869,8.30799,0.0,0,1.38327,0.0,0.807507,91.8769,1.63779,339.874,-9.27891,91.8769
2347,2347,165.4196,18.6352,8.3288,0.0,0,1.36945,0.0,0.80982,91.7734,1.62348,339.821,-9.27819,91.7734
2348,2348,165.4198,18.6871,8.34662,0.0,0,1.35563,0.0,0.811636,91.7349,1.60925,339.767,-9.27808,91.7349
2349,2349,165.42,18.7409,8.35329,0.0,0,1.3418,0.0,0.814302,91.8889,1.59546,339.713,-9.27808,91.8889
2350,2350,165.4202,18.8075,8.37161,0.0,0,1.32798,0.0,0.8165015,91.9112,1.58217,339.66,-9.27809,91.9112
2351,2351,165.4204,18.8837,8.38991,0.0,0,1.31415,0.0,0.817854,91.9787,1.56916,339.606,-9.27813,91.9787
2352,2352,165.4206,18.94552,8.39393,0.0,0,1.30033,0.0,0.820034,92.2126,1.55372,339.553,-9.27813,92.2126
2353,2353,165.4208,19.0008,8.40965,0.0,0,1.28651,0.0,0.822502,92.218,1.53819,339.499,-9.27866,92.218
2354,2354,165.421,19.0465,8.43082,0.0,0,1.27268,0.0,0.824038,92.084,1.52349,339.445,-9.27874,92.084
2355,2355,165.4212,19.086,8.436347,0.0,0,1.25886,0.0,0.826181,92.1816,1.50843,339.392,-9.27881,92.1816
2356,2356,165.4214,19.1368,8.45297,0.0,0,1.24503,0.0,0.829296,92.1464,1.49173,339.338,-9.27807,92.1464
2357,2357,165.4216,19.199,8.47773,0.0,0,1.23121,0.0,0.831224,92.026,1.47762,339.2847,-9.27738,92.026
2358,2358,165.4218,19.26506,8.48408,0.0,0,1.21766,0.0,0.833159,92.2347,1.46534,339.231,-9.27735,92.2347
2359,2359,165.422,19.329,8.49809,0.0,0,1.20445,0.0,0.836492,92.3017,1.45117,339.178,-9.27667,92.3017
2360,2360,165.4222,19.4006,8.52248,0.0,0,1.1913,0.0,0.838477,92.226,1.4346,339.124,-9.27673,92.226
2361,2361,165.4224,19.4711,8.52848,0.0,0,1.17815,0.0,0.8398298,92.4579,1.42062,339.07,-9.27753,92.4579
2362,2362,165.4226,19.5326,8.54028,0.0,0,1.165,0.0,0.842984,92.5464,1.41015,339.017,-9.27823,92.5464
2363,2363,165.4228,19.5873,8.56373,0.0,0,1.15186,0.0,0.845016,92.3998,1.39432,338.9632,-9.279,92.3998
2364,2364,165.423,19.6296,8.57016,0.0,0,1.13871,0.0,0.846028,92.4881,1.37852,338.91,-9.27908,92.4881
2365,2365,165.4232,19.6718,8.58058,0.0,0,1.12556,0.0,0.849261,92.5062,1.36402,338.856,-9.27836,92.5062
2366,2366,165.4234,19.7305,8.60377,0.0,0,1.11241,0.0,0.851678,92.3781,1.34832,338.802,-9.27754,92.3781
2367,2367,165.4236,19.7894,8.61305,0.0,0,1.09926,0.0,0.852562,92.4916,1.33505,338.749,-9.27737,92.4916
2368,2368,165.4238,19.8486,8.62216,0.0,0,1.08612,0.0,0.855691,92.6085,1.32155,338.695,-9.27681,92.6085
2369,2369,165.424,19.9145,8.64372,0.0,0,1.07297,0.0,0.858474,92.5368,1.30661,338.642,-9.27615,92.5368
2370,2370,165.4242,19.9954,8.65555,0.0,0,1.05982,0.0,0.859194,92.7037,1.29183,338.588,-9.27651,92.7037
2371,2371,165.4244,20.0781,8.66482,0.0,0,1.04667,0.0,0.862089,92.9225,1.27724,338.534,-9.27688,92.9225
2372,2372,165.4246,20.1385,8.685358,0.0,0,1.03352,0.0,0.8652963,92.837,1.26264,338.4809,-9.277339,92.837
2373,2373,165.4248,20.1951,8.70037,0.0,0,1.02038,0.0,0.866193,92.8302,1.24953,338.427,-9.27818,92.8302
2374,2374,165.425,20.25,8.71029,0.0,0,1.00723,0.0,0.868927,92.9049,1.23693,338.374,-9.27868,92.9049
2375,2375,165.4252,20.3039,8.72731,0.0,0,0.99408,0.0,0.87226,92.8469,1.22312,338.32,-9.27907,92.8469
2376,2376,165.4254,20.3618,8.74275,0.0,0,0.980932,0.0,0.873168,92.834,1.2092,338.267,-9.27849,92.834
2377,2377,165.4256,20.42914,8.75293,0.0,0,0.967784,0.0,0.875379,92.9574,1.194827,338.213,-9.27827,92.9574
2378,2378,165.4258,20.5018,8.7674,0.0,0,0.954636,0.0,0.878718,93.0261,1.18002,338.159,-9.27818,93.0261
2379,2379,165.426,20.5788,8.78445,0.0,0,0.941488,0.0,0.879951,93.0653,1.16587,338.1058,-9.27765,93.0653
2380,2380,165.4262,20.6617,8.79497,0.0,0,0.92834,0.0,0.881896,93.2485,1.15123,338.052,-9.27742,93.2485
2381,2381,165.4264,20.7353,8.80597,0.0,0,0.915192,0.0,0.885071,93.379,1.13675,337.999,-9.27638,93.379
2382,2382,165.4266,20.7954,8.82431,0.0,0,0.902044,0.0,0.886557,93.3125,1.12144,337.945,-9.275898,93.3125
2383,2383,165.4268,20.8578,8.836935,0.0,0,0.889161,0.0,0.88843,93.36,1.10768,337.986,-9.2763,93.36
2384,2384,165.427,20.9154,8.84618,0.0,0,0.876596,0.0,0.8917,93.4469,1.09736,338.0369,-9.2769,93.4469
2385,2385,165.4272,20.9644,8.86638,0.0,0,0.864089,0.0,0.893682,93.2913,1.08349,338.088,-9.27732,93.2913
2386,2386,165.4274,21.0217,8.88243,0.0,0,0.851585,0.0,0.89544,93.2484,1.06861,338.139,-9.27739,93.2484
2387,2387,165.4276,21.0947,8.88976,0.0,0,0.839081,0.0,0.898585,93.4358,1.054765,338.19,-9.27745,93.4358
2388,2388,165.4278,21.1728,8.9083,0.0,0,0.826577,0.0,0.900962,93.4349,1.04058,338.241,-9.2775,93.4349
2389,2389,165.428,21.2454,8.92525,0.0,0,0.814073,0.0,0.902477,93.4369,1.02802,338.293,-9.27802,93.4369
2390,2390,165.4282,21.3185,8.92976,0.0,0,0.8015694,0.0,0.904968,93.6732,1.01439,338.344,-9.27795,93.6732
2391,2391,165.4284,21.3925,8.945632,0.0,0,0.789065,0.0,0.907225,93.6983,0.999069,338.395,-9.27712,93.6983
2392,2392,165.4286,21.4607,8.964262,0.0,0,0.776561,0.0,0.908558,93.6438,0.984843,338.446,-9.27648,93.6438
2393,2393,165.4288,21.5176,8.96733,0.0,0,0.7640574,0.0,0.910724,93.8339,0.970099,338.497,-9.27602,93.8339
2394,2394,165.429,21.5682,8.98231,0.0,0,0.751553,0.0,0.913498,93.769,0.957303,338.5484,-9.27641,93.769
2395,2395,165.4292,21.6379,9.003912,0.0,0,0.739049,0.0,0.915256,93.6587,0.945014,338.6,-9.27643,93.6587
2396,2396,165.4294,21.7141,9.00782,0.0,0,0.726545,0.0,0.917274,93.9135,0.930184,338.6507,-9.27593,93.9135
2397,2397,165.4296,21.7791,9.02157,0.0,0,0.714041,0.0,0.9205097,93.9299,0.915316,338.702,-9.2759,93.9299
2398,2398,165.4298,21.8568,9.04486,0.0,0,0.701537,0.0,0.922453,93.8153,0.902158,338.753,-9.27605,93.8153
2399,2399,165.43,21.93919,9.05094,0.0,0,0.689033,0.0,0.924096,94.051,0.8907817,338.804,-9.27679,94.051
2400,2400,165.4302,22.0209,9.06369,0.0,0,0.676529,0.0,0.927618,94.153,0.877859,338.855,-9.27738,94.153
2401,2401,165.4304,22.1041,9.087018,0.0,0,0.664025,0.0,0.9297232,94.0532,0.863014,338.906,-9.27738,94.0532
2402,2402,165.4306,22.1722,9.09361,0.0,0,0.651521,0.0,0.930993,94.2136,0.850375,338.958,-9.27738,94.2136
2403,2403,165.4308,22.2353,9.1051,0.0,0,0.639017,0.0,0.9345206,94.2558,0.835628,339.009,-9.27677,94.2558
2404,2404,165.431,22.3042,9.12846,0.0,0,0.626513,0.0,0.936851,94.0875,0.820997,339.06,-9.276,94.0875
2405,2405,165.4312,22.376,9.13469,0.0,0,0.614009,0.0,0.93759,94.2673,0.810225,339.111,-9.27581,94.2673
2406,2406,165.4314,22.4445,9.14168,0.0,0,0.6015054,0.0,0.940694,94.4172,0.79819,339.1622,-9.27585,94.4172
2407,2407,165.4316,22.5168,9.16275,0.0,0,0.589001,0.0,0.943343,94.3016,0.785383,339.213,-9.27632,94.3016
2408,2408,165.4318,22.5932,9.17201,0.0,0,0.576745,0.0,0.943897,94.4367,0.770685,339.2645,-9.27603,94.4367
2409,2409,165.432,22.6698,9.1797,0.0,0,0.564788,0.0,0.94692,94.6028,0.75703,339.316,-9.27554,94.6028
2410,2410,165.4322,22.7549,9.19961,0.0,0,0.552886,0.0,0.950044,94.5574,0.743818,339.367,-9.27583,94.5574
2411,2411,165.4324,22.8272,9.2115,0.0,0,0.540986,0.0,0.950763,94.6177,0.730882,339.418,-9.276,94.6177
2412,2412,165.4326,22.8947,9.21972,0.0,0,0.529086,0.0,0.953625,94.7315,0.717907,339.469,-9.27596,94.7315
2413,2413,165.4328,22.96637,9.23743,0.0,0,0.517186,0.0,0.956902,94.6683,0.704826,339.52,-9.27581,94.6683
2414,2414,165.433,23.0392,9.25186,0.0,0,0.505286,0.0,0.957744,94.6748,0.69178,339.571,-9.2757,94.6748
2415,2415,165.4332,23.10787,9.26036,0.0,0,0.493386,0.0,0.96035,94.7831,0.679638,339.623,-9.27636,94.7831
2416,2416,165.4334,23.1801,9.27526,0.0,0,0.4814859,0.0,0.9637602,94.7739,0.664871,339.674,-9.27722,94.7739
2417,2417,165.4336,23.2547,9.290494,0.0,0,0.4695859,0.0,0.964595,94.7656,0.651096,339.725,-9.27714,94.7656
2418,2418,165.4338,23.3309,9.2981,0.0,0,0.457686,0.0,0.966641,94.9195,0.640616,339.776,-9.27586,94.9195
2419,2419,165.434,23.4189,9.30855,0.0,0,0.445786,0.0,0.969944,95.0613,0.6281271,339.827,-9.27458,95.0613
2420,2420,165.4342,23.5002,9.324173,0.0,0,0.4338859,0.0,0.970902,95.0663,0.613597,339.8783,-9.27494,95.0663
2421,2421,165.4344,23.5742,9.33473,0.0,0,0.421986,0.0,0.972768,95.1458,0.601605,339.929,-9.27508,95.1458
2422,2422,165.4346,23.6457,9.34452,0.0,0,0.410086,0.0,0.976177,95.2298,0.5895049,339.981,-9.27575,95.2298
2423,2423,165.4348,23.7177,9.36266,0.0,0,0.398186,0.0,0.977697,95.1393,0.575766,340.032,-9.27631,95.1393
2424,2424,165.435,23.7857,9.3754,0.0,0,0.3862859,0.0,0.979543,95.144,0.56369,340.083,-9.276535,95.144
2425,2425,165.4352,23.8525,9.38212,0.0,0,0.374386,0.0,0.982896,95.2695,0.551679,340.134,-9.27729,95.2695
2426,2426,165.4354,23.9244,9.40058,0.0,0,0.362486,0.0,0.985029,95.1662,0.5397,340.185,-9.27765,95.1662