File: examples/hot axisymmetric compression example/data/04 corrected data/testID_0135.csv
level_0,index,Time(sec),Force(kN),Jaw(mm),PowAngle(deg),Power(W),Pram,PTemp,Strain,Stress(MPa),Stroke(mm),TC1(C),wedge(mm),uncorrected stress
1873,1873,155.3448,1.15913,0.0382783,0.0,0,9.03371,0.0,0.00235058,14.0922,10.0417,331.971,-9.30676,14.0922
1874,1874,155.345,2.2786,0.0473206,0.0,0,9.00444,0.0,0.00320609,27.6843,10.0075,332.026,-9.30684,27.6843
1875,1875,155.3452,3.83917,0.07576222,0.0,0,8.97518,0.0,0.004608199,46.5503,9.97917,332.081,-9.30684,46.5503
1876,1876,155.3454,5.035481,0.1052,0.0,0,8.94591,0.0,0.00643112,60.9275,9.95108,332.136,-9.30615,60.9275
1877,1877,155.3456,5.67973,0.119481,0.0,0,8.91665,0.0,0.00800471,68.6524,9.91994,332.1904,-9.30515,68.6524
1878,1878,155.3458,6.06837,0.142656,0.0,0,8.88739,0.0,0.00918747,73.2285,9.88548,332.245,-9.30375,73.2285
1879,1879,155.346,6.5433,0.185623,0.0,0,8.85812,0.0,0.0114643,78.7164,9.84705,332.3,-9.30236,78.7164
1880,1880,155.3462,6.93207,0.238523,0.0,0,8.82886,0.0,0.0154022,83.0762,9.80587,332.355,-9.30164,83.0762
1881,1881,155.3464,7.10738,0.299271,0.0,0,8.79959,0.0,0.0195531,84.8038,9.766923,332.41,-9.30189,84.8038
1882,1882,155.3466,7.32069,0.34722,0.0,0,8.77033,0.0,0.0225511,87.0453,9.72356,332.4646,-9.302289,87.0453
1883,1883,155.3468,7.72218,0.375012,0.0,0,8.74165,0.0,0.02492414,91.6335,9.67453,332.519,-9.30207,91.6335
1884,1884,155.347,8.02499,0.418665,0.0,0,8.71369,0.0,0.02782622,94.9237,9.62779,332.574,-9.30225,94.9237
1885,1885,155.3472,8.16284,0.4735606,0.0,0,8.68585,0.0,0.0310539,96.1666,9.58061,332.629,-9.30171,96.1666
1886,1886,155.3474,8.41991,0.503116,0.0,0,8.65802,0.0,0.0337252,98.9797,9.5361,332.684,-9.30136,98.9797
1887,1887,155.3476,8.72909,0.520547,0.0,0,8.63019,0.0,0.0353881,102.483,9.49643,332.7388,-9.30114,102.483
1888,1888,155.3478,8.76802,0.540779,0.0,0,8.60235,0.0,0.0362451,102.786,9.45956,332.794,-9.30005,102.786
1889,1889,155.348,8.55353,0.5628804,0.0,0,8.574522,0.0,0.0377744,100.108,9.42735,332.848,-9.2993,100.108
1890,1890,155.3482,8.50521,0.602918,0.0,0,8.546689,0.0,0.0407129,99.2479,9.39644,332.903,-9.29915,99.2479
1891,1891,155.3484,8.76173,0.643296,0.0,0,8.518857,0.0,0.043203,101.935,9.36452,332.958,-9.2998,101.935
1892,1892,155.3486,9.02864,0.659561,0.0,0,8.49103,0.0,0.0445683,104.913,9.33152,333.013,-9.30034,104.913
1893,1893,155.3488,9.13226,0.682401,0.0,0,8.46319,0.0,0.0464293,105.937,9.29891,333.0654,-9.29982,105.937
1894,1894,155.349,9.21998,0.725546,0.0,0,8.43536,0.0,0.0488167,106.61,9.26603,333.115,-9.29921,106.61
1895,1895,155.3492,9.35726,0.768289,0.0,0,8.40753,0.0,0.0516572,107.851,9.23171,333.165,-9.29912,107.851
1896,1896,155.3494,9.36493,0.815855,0.0,0,8.3797,0.0,0.0555104,107.554,9.19517,333.215,-9.29939,107.554
1897,1897,155.3496,9.17714,0.864375,0.0,0,8.35186,0.0,0.0587412,105.012,9.15447,333.265,-9.299921,105.012
1898,1898,155.3498,9.09058,0.897864,0.0,0,8.32403,0.0,0.0609929,103.758,9.11332,333.315,-9.3004,103.758
1899,1899,155.35,9.29203,0.933822,0.0,0,8.2962,0.0,0.0639838,105.768,9.075,333.365,-9.30035,105.768
1900,1900,155.3502,9.51094,0.977482,0.0,0,8.26837,0.0,0.0669164,107.9,9.03867,333.415,-9.29966,107.9
1901,1901,155.3504,9.51923,1.00892,0.0,0,8.24054,0.0,0.068938,107.735,9.00178,333.465,-9.29909,107.735
1902,1902,155.3506,9.46457,1.0304,0.0,0,8.21271,0.0,0.071047,106.94,8.963727,333.515,-9.29917,106.94
1903,1903,155.3508,9.57867,1.05119,0.0,0,8.18487,0.0,0.0725997,108.057,8.93151,333.565,-9.29917,108.057
1904,1904,155.351,9.7569,1.071123,0.0,0,8.15704,0.0,0.0735347,109.899,8.90274,333.615,-9.299078,109.899
1905,1905,155.3512,9.73023,1.10039,0.0,0,8.12921,0.0,0.0758316,109.352,8.87176,333.6651,-9.29911,109.352
1906,1906,155.3514,9.5498,1.13809,0.0,0,8.10138,0.0,0.07867045,107.013,8.84385,333.715,-9.299654,107.013
1907,1907,155.3516,9.52969,1.16641,0.0,0,8.07355,0.0,0.080365,106.553,8.81646,333.765,-9.30042,106.553
1908,1908,155.3518,9.770648,1.18523,0.0,0,8.04627,0.0,0.0819965,109.088,8.7882,333.815,-9.30061,109.088
1909,1909,155.352,10.004,1.21111,0.0,0,8.01966,0.0,0.0840207,111.469,8.76008,333.865,-9.30044,111.469
1910,1910,155.3522,10.0153,1.25082,0.0,0,7.993176,0.0,0.08623302,111.251,8.73053,333.915,-9.30021,111.251
1911,1911,155.3524,9.94302,1.29333,0.0,0,7.9667,0.0,0.0894093,110.082,8.6982,333.965,-9.2996,110.082
1912,1912,155.3526,9.96106,1.32983,0.0,0,7.94022,0.0,0.0926416,109.967,8.66346,334.015,-9.299036,109.967
1913,1913,155.3528,9.9906,1.36479,0.0,0,7.91374,0.0,0.0947543,109.99,8.62972,334.065,-9.298934,109.99
1914,1914,155.353,9.93142,1.39729,0.0,0,7.88726,0.0,0.0970354,109.059,8.594492,334.115,-9.29897,109.059
1915,1915,155.3532,9.86998,1.42917,0.0,0,7.86078,0.0,0.0999522,108.111,8.56009,334.165,-9.299037,108.111
1916,1916,155.3534,9.93993,1.46798,0.0,0,7.8343,0.0,0.102447,108.543,8.52737,334.215,-9.2992,108.543
1917,1917,155.3536,10.0904,1.49599,0.0,0,7.80782,0.0,0.1044347,109.941,8.49484,334.2648,-9.29994,109.941
1918,1918,155.3538,10.16041,1.507689,0.0,0,7.78134,0.0,0.106002,110.601,8.46197,334.315,-9.30055,110.601
1919,1919,155.354,10.1611,1.52954,0.0,0,7.75486,0.0,0.107256,110.416,8.43151,334.365,-9.300704,110.416
1920,1920,155.3542,10.2011,1.56023,0.0,0,7.72838,0.0,0.109044,110.58,8.4047,334.415,-9.30101,110.58
1921,1921,155.3544,10.2499,1.58673,0.0,0,7.7019,0.0,0.111556,110.873,8.37972,334.465,-9.30106,110.873
1922,1922,155.3546,10.227,1.6195,0.0,0,7.675415,0.0,0.11394,110.335,8.35247,334.515,-9.30074,110.335
1923,1923,155.3548,10.1858,1.64851,0.0,0,7.64893,0.0,0.115676,109.635,8.32515,334.565,-9.300909,109.635
1924,1924,155.355,10.262,1.6632,0.0,0,7.62246,0.0,0.117298,110.324,8.29773,334.615,-9.3006,110.324
1925,1925,155.3552,10.4175,1.69203,0.0,0,7.59598,0.0,0.11944,111.735,8.27023,334.665,-9.29954,111.735
1926,1926,155.3554,10.4737,1.73267,0.0,0,7.5695,0.0,0.12181,111.969,8.24229,334.7146,-9.299077,111.969
1927,1927,155.3556,10.417,1.75933,0.0,0,7.543015,0.0,0.124268,111.122,8.21154,334.765,-9.29882,111.122
1928,1928,155.3558,10.40061,1.78992,0.0,0,7.51654,0.0,0.126903,110.671,8.18161,334.815,-9.29881,110.671
1929,1929,155.356,10.4823,1.8242,0.0,0,7.49006,0.0,0.128908,111.229,8.15273,334.8645,-9.299078,111.229
1930,1930,155.3562,10.542,1.84648,0.0,0,7.46358,0.0,0.13084,111.659,8.12205,334.914,-9.299777,111.659
1931,1931,155.3564,10.4956,1.879208,0.0,0,7.4371,0.0,0.133671,110.87,8.09314,334.964,-9.30047,110.87
1932,1932,155.3566,10.4637,1.91572,0.0,0,7.410615,0.0,0.135976,110.201,8.06422,335.014,-9.30056,110.201
1933,1933,155.3568,10.5366,1.93074,0.0,0,7.38467,0.0,0.137386,110.831,8.03274,335.064,-9.30008,110.831
1934,1934,155.357,10.6323,1.9479,0.0,0,7.35936,0.0,0.139176,111.68,8.005187,335.114,-9.29953,111.68
1935,1935,155.3572,10.6524,1.977481,0.0,0,7.33417,0.0,0.140814,111.617,7.97772,335.164,-9.29927,111.617
1936,1936,155.3574,10.6208,2.000381,0.0,0,7.30899,0.0,0.142442,111.076,7.95077,335.214,-9.299202,111.076
1937,1937,155.3576,10.6347,2.0273,0.0,0,7.2838,0.0,0.1450787,110.973,7.92452,335.264,-9.29918,110.973
1938,1938,155.3578,10.69634,2.05889,0.0,0,7.25862,0.0,0.147219,111.323,7.89912,335.3143,-9.29971,111.323
1939,1939,155.358,10.73982,2.07775,0.0,0,7.23344,0.0,0.148458,111.599,7.87491,335.364,-9.29978,111.599
1940,1940,155.3582,10.7523,2.1002,0.0,0,7.20825,0.0,0.150673,111.52,7.848659,335.414,-9.29968,111.52
1941,1941,155.3584,10.7975,2.13528,0.0,0,7.18307,0.0,0.153212,111.66,7.82046,335.464,-9.29983,111.66
1942,1942,155.3586,10.8732,2.1634,0.0,0,7.15788,0.0,0.155016,112.177,7.793961,335.514,-9.29926,112.177
1943,1943,155.3588,10.901,2.18826,0.0,0,7.1327,0.0,0.1574358,112.229,7.76787,335.542,-9.2988,112.229
1944,1944,155.359,10.8801,2.21739,0.0,0,7.10752,0.0,0.159718,111.738,7.74021,335.546,-9.29886,111.738
1945,1945,155.3592,10.8639,2.2433,0.0,0,7.08233,0.0,0.161235,111.328,7.71412,335.551,-9.29917,111.328
1946,1946,155.3594,10.8803,2.27011,0.0,0,7.05715,0.0,0.163696,111.243,7.68719,335.556,-9.29911,111.243
1947,1947,155.3596,10.9086,2.2992,0.0,0,7.03196,0.0,0.166214,111.256,7.659678,335.561,-9.29901,111.256
1948,1948,155.3598,10.9387,2.32215,0.0,0,7.00678,0.0,0.167594,111.346,7.63343,335.566,-9.29901,111.346
1949,1949,155.36,10.9945,2.33951,0.0,0,6.981595,0.0,0.169235,111.748,7.60697,335.5708,-9.29901,111.748
1950,1950,155.3602,11.0609,2.36094,0.0,0,6.95641,0.0,0.171229,112.217,7.58065,335.576,-9.29901,112.217
1951,1951,155.3604,11.1106,2.38972,0.0,0,6.93123,0.0,0.1728743,112.444,7.55506,335.581,-9.29909,112.444
1952,1952,155.3606,11.1153,2.41857,0.0,0,6.90604,0.0,0.175202,112.213,7.53002,335.585,-9.29914,112.213
1953,1953,155.3608,11.0882,2.44326,0.0,0,6.88086,0.0,0.17778,111.701,7.50385,335.59,-9.29921,111.701
1954,1954,155.361,11.0771,2.46984,0.0,0,6.85568,0.0,0.179388,111.334,7.47761,335.595,-9.29922,111.334
1955,1955,155.3612,11.1053,2.49392,0.0,0,6.830492,0.0,0.181157,111.385,7.45444,335.6,-9.29968,111.385
1956,1956,155.3614,11.1578,2.51569,0.0,0,6.80531,0.0,0.183532,111.701,7.42918,335.605,-9.29994,111.701
1957,1957,155.3616,11.215,2.54752,0.0,0,6.78012,0.0,0.185636,111.964,7.40237,335.61,-9.29987,111.964
1958,1958,155.3618,11.2697,2.5757,0.0,0,6.75544,0.0,0.187619,112.234,7.37723,335.615,-9.29985,112.234
1959,1959,155.362,11.3088,2.59295,0.0,0,6.73137,0.0,0.189762,112.454,7.34958,335.619,-9.2993,112.454
1960,1960,155.3622,11.3238,2.62048,0.0,0,6.7074,0.0,0.191734,112.332,7.32317,335.624,-9.29902,112.332
1961,1961,155.3624,11.3192,2.65119,0.0,0,6.68344,0.0,0.193636,111.984,7.2971,335.629,-9.29956,111.984
1962,1962,155.3626,11.316,2.67153,0.0,0,6.65948,0.0,0.195919,111.753,7.2723,335.634,-9.29957,111.753
1963,1963,155.3628,11.3226,2.69887,0.0,0,6.63552,0.0,0.198166,111.549,7.24872,335.639,-9.2992,111.549
1964,1964,155.363,11.3442,2.72612,0.0,0,6.61156,0.0,0.199803,111.494,7.22383,335.644,-9.29954,111.494
1965,1965,155.3632,11.38709,2.73974,0.0,0,6.5876,0.0,0.201407,111.78,7.19848,335.649,-9.29956,111.78
1966,1966,155.3634,11.4405,2.76494,0.0,0,6.56364,0.0,0.203537,112.054,7.17123,335.653,-9.29992,112.054
1967,1967,155.3636,11.4952,2.7984,0.0,0,6.53968,0.0,0.205583,112.256,7.14554,335.658,-9.29984,112.256
1968,1968,155.3638,11.5305,2.81715,0.0,0,6.51572,0.0,0.207601,112.413,7.122323,335.663,-9.29927,112.413
1969,1969,155.364,11.5473,2.84129,0.0,0,6.49176,0.0,0.209902,112.335,7.09784,335.668,-9.2997,112.335
1970,1970,155.3642,11.5561,2.87124,0.0,0,6.467802,0.0,0.211707,112.119,7.07321,335.673,-9.3,112.119
1971,1971,155.3644,11.5655,2.88886,0.0,0,6.44384,0.0,0.21346,112.033,7.05003,335.678,-9.29948,112.033
1972,1972,155.3646,11.5808,2.91507,0.0,0,6.41988,0.0,0.216035,111.917,7.02511,335.683,-9.29906,111.917
1973,1973,155.3648,11.6093,2.94825,0.0,0,6.39592,0.0,0.218111,111.858,6.99968,335.687,-9.29907,111.858
1974,1974,155.365,11.6421,2.96467,0.0,0,6.37196,0.0,0.219628,112.008,6.9744,335.692,-9.29959,112.008
1975,1975,155.3652,11.672,2.98619,0.0,0,6.348,0.0,0.22197,112.077,6.94919,335.6972,-9.29975,112.077
1976,1976,155.3654,11.7098,3.01807,0.0,0,6.32404,0.0,0.224,112.116,6.92593,335.702,-9.29936,112.116
1977,1977,155.3656,11.7359,3.0391,0.0,0,6.30008,0.0,0.225635,112.151,6.90339,335.707,-9.29923,112.151
1978,1978,155.3658,11.7524,3.06304,0.0,0,6.27612,0.0,0.228293,112.065,6.87789,335.712,-9.29922,112.065
1979,1979,155.366,11.7693,3.09368,0.0,0,6.252162,0.0,0.23057,111.912,6.84994,335.717,-9.29918,111.912
1980,1980,155.3662,11.79831,3.11351,0.0,0,6.2282,0.0,0.231892,111.984,6.82305,335.722,-9.29904,111.984
1981,1981,155.3664,11.8349,3.13395,0.0,0,6.20424,0.0,0.234176,112.121,6.79892,335.726,-9.29984,112.121
1982,1982,155.3666,11.8598,3.16394,0.0,0,6.18028,0.0,0.236586,112.048,6.775764,335.731,-9.30008,112.048
1983,1983,155.3668,11.8742,3.18798,0.0,0,6.1568,0.0,0.2381532,111.936,6.749867,335.736,-9.30001,111.936
1984,1984,155.367,11.8913,3.20852,0.0,0,6.1339,0.0,0.240475,111.884,6.72329,335.741,-9.30027,111.884
1985,1985,155.3672,11.9218,3.23282,0.0,0,6.11111,0.0,0.242658,111.92,6.69982,335.746,-9.30029,111.92
1986,1986,155.3674,11.96258,3.25527,0.0,0,6.08832,0.0,0.243955,112.069,6.67371,335.751,-9.29983,112.069
1987,1987,155.3676,11.99191,3.27841,0.0,0,6.065536,0.0,0.246279,112.102,6.64997,335.756,-9.29907,112.102
1988,1988,155.3678,12.0142,3.30664,0.0,0,6.042748,0.0,0.24899,112.015,6.626976,335.76,-9.29903,112.015
1989,1989,155.368,12.045,3.33209,0.0,0,6.01996,0.0,0.250579,112.036,6.601697,335.765,-9.29903,112.036
1990,1990,155.3682,12.0826,3.35304,0.0,0,5.99717,0.0,0.252639,112.166,6.57766,335.77,-9.29901,112.166
1991,1991,155.3684,12.1157,3.37691,0.0,0,5.97438,0.0,0.255101,112.221,6.55291,335.775,-9.2992,112.221
1992,1992,155.3686,12.1281,3.40476,0.0,0,5.9516,0.0,0.256805,112.042,6.52924,335.78,-9.29933,112.042
1993,1993,155.3688,12.1264,3.42891,0.0,0,5.92881,0.0,0.258929,111.772,6.50418,335.759,-9.29957,111.772
1994,1994,155.369,12.1345,3.44906,0.0,0,5.90602,0.0,0.261352,111.634,6.4807,335.711,-9.3002,111.634
1995,1995,155.3692,12.1653,3.47457,0.0,0,5.88323,0.0,0.262985,111.647,6.4591,335.663,-9.30036,111.647
1996,1996,155.3694,12.2046,3.49866,0.0,0,5.86044,0.0,0.264834,111.752,6.43323,335.616,-9.300355,111.752
1997,1997,155.3696,12.2449,3.51859,0.0,0,5.83766,0.0,0.267343,111.908,6.407,335.568,-9.29986,111.908
1998,1998,155.3698,12.2835,3.54692,0.0,0,5.81487,0.0,0.269431,111.958,6.38406,335.521,-9.29882,111.958
1999,1999,155.37,12.3099,3.5726,0.0,0,5.792079,0.0,0.27132,111.923,6.36111,335.4733,-9.2989,111.923
2000,2000,155.3702,12.325,3.58969,0.0,0,5.76929,0.0,0.273591,111.878,6.33932,335.426,-9.29916,111.878
2001,2001,155.3704,12.3465,3.61656,0.0,0,5.7465,0.0,0.275601,111.784,6.31465,335.3782,-9.29862,111.784
2002,2002,155.3706,12.3688,3.64568,0.0,0,5.72372,0.0,0.277456,111.672,6.28513,335.331,-9.29862,111.672
2003,2003,155.3708,12.3762,3.66351,0.0,0,5.70093,0.0,0.279782,111.547,6.25985,335.283,-9.298872,111.547
2004,2004,155.371,12.3934,3.68963,0.0,0,5.67814,0.0,0.282087,111.42,6.23858,335.2356,-9.29889,111.42
2005,2005,155.3712,12.4294,3.71836,0.0,0,5.65535,0.0,0.2839182,111.433,6.21494,335.188,-9.30026,111.433
2006,2006,155.3714,12.4707,3.73267,0.0,0,5.63256,0.0,0.285808,111.648,6.19253,335.141,-9.30167,111.648
2007,2007,155.3716,12.5147,3.7573,0.0,0,5.60978,0.0,0.288189,111.773,6.170536,335.093,-9.30127,111.773
2008,2008,155.3718,12.5493,3.78867,0.0,0,5.58744,0.0,0.290208,111.74,6.14543,335.045,-9.30091,111.74
2009,2009,155.372,12.5658,3.80393,0.0,0,5.56566,0.0,0.292103,111.72,6.12171,334.998,-9.30086,111.72
2010,2010,155.3722,12.5743,3.82601,0.0,0,5.54397,0.0,0.294551,111.553,6.09889,334.95,-9.30051,111.553
2011,2011,155.3724,12.5886,3.85653,0.0,0,5.52229,0.0,0.296469,111.345,6.07563,334.903,-9.29948,111.345
2012,2012,155.3726,12.6085,3.87278,0.0,0,5.50061,0.0,0.298207,111.343,6.05218,334.855,-9.2985,111.343
2013,2013,155.3728,12.6326,3.89682,0.0,0,5.47893,0.0,0.300915,111.291,6.02859,334.808,-9.29859,111.291
2014,2014,155.373,12.6571,3.92966,0.0,0,5.45725,0.0,0.3030988,111.145,6.00548,334.76,-9.29849,111.145
2015,2015,155.3732,12.6819,3.946928,0.0,0,5.43557,0.0,0.304698,111.172,5.97931,334.713,-9.29835,111.172
2016,2016,155.3734,12.716,3.967628,0.0,0,5.41389,0.0,0.307231,111.242,5.95673,334.665,-9.2987,111.242
2017,2017,155.3736,12.7616,3.99817,0.0,0,5.39221,0.0,0.309363,111.301,5.934021,334.618,-9.299674,111.301
2018,2018,155.3738,12.7934,4.01719,0.0,0,5.37053,0.0,0.310862,111.366,5.91009,334.57,-9.30022,111.366
2019,2019,155.374,12.8034,4.03719,0.0,0,5.34885,0.0,0.313445,111.23,5.8887,334.523,-9.30037,111.23
2020,2020,155.3742,12.8196,4.06582,0.0,0,5.32717,0.0,0.3157438,111.051,5.86511,334.475,-9.30078,111.051
2021,2021,155.3744,12.8462,4.084424,0.0,0,5.30549,0.0,0.317102,111.073,5.842453,334.427,-9.30099,111.073
2022,2022,155.3746,12.8743,4.10339,0.0,0,5.28381,0.0,0.319477,111.103,5.81965,334.38,-9.30083,111.103
2023,2023,155.3748,12.8973,4.13239,0.0,0,5.26213,0.0,0.321953,110.976,5.79387,334.3324,-9.3006,110.976
2024,2024,155.375,12.9145,4.15455,0.0,0,5.24045,0.0,0.323486,110.874,5.76997,334.285,-9.29979,110.874
2025,2025,155.3752,12.9359,4.17371,0.0,0,5.21877,0.0,0.325828,110.842,5.746944,334.2373,-9.2986,110.842
2026,2026,155.3754,12.9689,4.19905,0.0,0,5.19709,0.0,0.328298,110.838,5.72341,334.19,-9.29835,110.838
2027,2027,155.3756,13.013,4.2221,0.0,0,5.17541,0.0,0.329715,110.954,5.70115,334.142,-9.29871,110.954
2028,2028,155.3758,13.0472,4.24404,0.0,0,5.15373,0.0,0.332122,110.996,5.67774,334.0947,-9.29863,110.996
2029,2029,155.376,13.0735,4.26931,0.0,0,5.13205,0.0,0.33493,110.932,5.65519,334.047,-9.29932,110.932
2030,2030,155.3762,13.0973,4.29313,0.0,0,5.11037,0.0,0.33641,110.862,5.63333,333.9996,-9.3003,110.862
2031,2031,155.3764,13.112,4.31317,0.0,0,5.08869,0.0,0.3384527,110.757,5.61008,333.952,-9.29987,110.757
2032,2032,155.3766,13.129,4.33398,0.0,0,5.06701,0.0,0.341046,110.662,5.58789,333.905,-9.30058,110.662
2033,2033,155.3768,13.1543,4.35959,0.0,0,5.04577,0.0,0.342728,110.582,5.56605,333.857,-9.30114,110.582
2034,2034,155.377,13.1795,4.38198,0.0,0,5.02505,0.0,0.344811,110.536,5.54419,333.809,-9.300602,110.536
2035,2035,155.3772,13.2032,4.4011,0.0,0,5.00442,0.0,0.347406,110.515,5.5214,333.762,-9.3,110.515
2036,2036,155.3774,13.2315,4.42622,0.0,0,4.9838,0.0,0.349155,110.462,5.49661,333.714,-9.29958,110.462
2037,2037,155.3776,13.2711,4.44835,0.0,0,4.96318,0.0,0.350964,110.536,5.47391,333.667,-9.29992,110.536
2038,2038,155.3778,13.3063,4.46532,0.0,0,4.942564,0.0,0.353471,110.632,5.45245,333.619,-9.29958,110.632
2039,2039,155.378,13.3346,4.49184,0.0,0,4.92194,0.0,0.355528,110.559,5.43083,333.572,-9.29876,110.559
2040,2040,155.3782,13.3601,4.51678,0.0,0,4.90132,0.0,0.357392,110.48,5.40823,333.524,-9.29874,110.48
2041,2041,155.3784,13.3732,4.53216,0.0,0,4.8807,0.0,0.359747,110.409,5.38464,333.477,-9.29916,110.409
2042,2042,155.3786,13.3868,4.55886,0.0,0,4.86008,0.0,0.361943,110.209,5.36137,333.429,-9.299592,110.209
2043,2043,155.3788,13.3996,4.58704,0.0,0,4.83946,0.0,0.363929,109.985,5.34033,333.337,-9.29999,109.985
2044,2044,155.379,13.4232,4.60174,0.0,0,4.81884,0.0,0.366288,110.006,5.31621,333.199,-9.30033,110.006
2045,2045,155.3792,13.4572,4.62528,0.0,0,4.798224,0.0,0.3686015,110.008,5.29301,333.0611,-9.30055,110.008
2046,2046,155.3794,13.5003,4.65303,0.0,0,4.7776,0.0,0.370346,110.034,5.27254,332.923,-9.30057,110.034
2047,2047,155.3796,13.5503,4.6666,0.0,0,4.75698,0.0,0.372339,110.281,5.2497,332.786,-9.30053,110.281
2048,2048,155.3798,13.58889,4.69056,0.0,0,4.73636,0.0,0.374917,110.311,5.22862,332.648,-9.29984,110.311
2049,2049,155.38,13.6103,4.72086,0.0,0,4.715744,0.0,0.376956,110.125,5.20736,332.51,-9.2991,110.125
2050,2050,155.3802,13.6279,4.73485,0.0,0,4.69512,0.0,0.378848,110.101,5.18395,332.3725,-9.29865,110.101
2051,2051,155.3804,13.6473,4.75677,0.0,0,4.6745,0.0,0.381453,109.996,5.16249,332.235,-9.29828,109.996
2052,2052,155.3806,13.65864,4.78626,0.0,0,4.65388,0.0,0.383448,109.736,5.14262,332.097,-9.298336,109.736
2053,2053,155.3808,13.678,4.80071,0.0,0,4.63326,0.0,0.3851231,109.719,5.12037,331.959,-9.298687,109.719
2054,2054,155.381,13.71643,4.82211,0.0,0,4.61264,0.0,0.387888,109.771,5.09825,331.822,-9.29874,109.771
2055,2055,155.3812,13.758,4.8526,0.0,0,4.59202,0.0,0.389955,109.738,5.07472,331.684,-9.29867,109.738
2056,2056,155.3814,13.798,4.867177,0.0,0,4.571404,0.0,0.391426,109.88,5.05213,331.546,-9.29892,109.88
2057,2057,155.3816,13.8342,4.8871,0.0,0,4.55078,0.0,0.3943108,109.929,5.0316,331.408,-9.29909,109.929
2058,2058,155.3818,13.8597,4.91873,0.0,0,4.53058,0.0,0.396738,109.748,5.01058,331.271,-9.29911,109.748
2059,2059,155.382,13.8797,4.93673,0.0,0,4.51087,0.0,0.398287,109.688,4.98967,331.133,-9.29903,109.688
2060,2060,155.3822,13.8977,4.95563,0.0,0,4.49125,0.0,0.40106,109.601,4.96562,330.995,-9.29902,109.601
2061,2061,155.3824,13.9187,4.98404,0.0,0,4.47163,0.0,0.403519,109.422,4.94215,330.858,-9.29875,109.422
2062,2062,155.3826,13.9434,5.00225,0.0,0,4.45201,0.0,0.404801,109.394,4.91961,330.72,-9.29904,109.394
2063,2063,155.3828,13.9654,5.01973,0.0,0,4.4324,0.0,0.407342,109.353,4.89777,330.582,-9.29949,109.353
2064,2064,155.383,13.9949,5.0469,0.0,0,4.41278,0.0,0.410033,109.251,4.87668,330.4444,-9.29921,109.251
2065,2065,155.3832,14.0359,5.067492,0.0,0,4.39317,0.0,0.411387,109.319,4.85519,330.307,-9.29905,109.319
2066,2066,155.3834,14.0862,5.084507,0.0,0,4.37355,0.0,0.413763,109.502,4.8344,330.169,-9.298954,109.502
2067,2067,155.3836,14.1341,5.1083,0.0,0,4.35393,0.0,0.416398,109.58,4.81391,330.031,-9.29867,109.58
2068,2068,155.3838,14.1666,5.13015,0.0,0,4.33432,0.0,0.417763,109.561,4.79136,329.894,-9.29873,109.561
2069,2069,155.384,14.1851,5.14897,0.0,0,4.314702,0.0,0.420056,109.472,4.76935,329.7558,-9.29873,109.472
2070,2070,155.3842,14.1957,5.171258,0.0,0,4.29509,0.0,0.422835,109.276,4.748168,329.618,-9.29861,109.276
2071,2071,155.3844,14.2133,5.19435,0.0,0,4.27547,0.0,0.424313,109.125,4.72586,329.48,-9.298501,109.125
2072,2072,155.3846,14.2348,5.21408,0.0,0,4.25585,0.0,0.4264383,109.045,4.704217,329.343,-9.29862,109.045
2073,2073,155.3848,14.261,5.23498,0.0,0,4.23624,0.0,0.4293094,108.985,4.68248,329.2049,-9.29899,108.985
2074,2074,155.385,14.2966,5.25995,0.0,0,4.21662,0.0,0.431094,108.945,4.66014,329.067,-9.29962,108.945
2075,2075,155.3852,14.334,5.28048,0.0,0,4.19701,0.0,0.433113,108.973,4.638515,328.929,-9.299839,108.973
2076,2076,155.3854,14.3758,5.29813,0.0,0,4.17739,0.0,0.435793,109.068,4.61884,328.792,-9.29921,109.068
2077,2077,155.3856,14.4069,5.32339,0.0,0,4.15777,0.0,0.437747,108.986,4.59868,328.654,-9.29899,108.986
2078,2078,155.3858,14.4329,5.34501,0.0,0,4.13816,0.0,0.439692,108.91,4.57935,328.5163,-9.29903,108.91
2079,2079,155.386,14.4591,5.35952,0.0,0,4.11854,0.0,0.442251,108.924,4.5579,328.379,-9.29919,108.924
2080,2080,155.3862,14.4769,5.38429,0.0,0,4.09893,0.0,0.444251,108.745,4.53607,328.241,-9.29971,108.745
2081,2081,155.3864,14.4952,5.40758,0.0,0,4.07931,0.0,0.446026,108.587,4.51696,328.103,-9.29958,108.587
2082,2082,155.3866,14.5167,5.42051,0.0,0,4.05969,0.0,0.448425,108.584,4.49709,327.965,-9.2996,108.584
2083,2083,155.3868,14.5513,5.44486,0.0,0,4.04047,0.0,0.450666,108.533,4.476,327.8277,-9.30035,108.533
2084,2084,155.387,14.58878,5.47087,0.0,0,4.02173,0.0,0.452553,108.481,4.45509,327.69,-9.30111,108.481
2085,2085,155.3872,14.6286,5.48285,0.0,0,4.00307,0.0,0.454801,108.623,4.4333,327.552,-9.30113,108.623
2086,2086,155.3874,14.6733,5.50552,0.0,0,3.98441,0.0,0.457248,108.664,4.4132,327.415,-9.29989,108.664
2087,2087,155.3876,14.7094,5.53312,0.0,0,3.96575,0.0,0.459106,108.576,4.39555,327.277,-9.29911,108.576
2088,2088,155.3878,14.7442,5.54507,0.0,0,3.9471,0.0,0.461179,108.679,4.37631,327.1391,-9.29901,108.679
2089,2089,155.388,14.771,5.5671,0.0,0,3.92844,0.0,0.463906,108.592,4.35515,327.001,-9.29898,108.592
2090,2090,155.3882,14.7815,5.59552,0.0,0,3.90979,0.0,0.465828,108.301,4.331882,326.864,-9.29866,108.301
2091,2091,155.3884,14.7923,5.60703,0.0,0,3.89113,0.0,0.467625,108.231,4.3083,326.726,-9.29863,108.231
2092,2092,155.3886,14.8131,5.62701,0.0,0,3.87247,0.0,0.470335,108.125,4.28924,326.5882,-9.29924,108.125
2093,2093,155.3888,14.8553,5.65509,0.0,0,3.85382,0.0,0.472326,108.068,4.2713,326.4541,-9.29946,108.068
2094,2094,155.389,14.8977,5.66731,0.0,0,3.83516,0.0,0.473929,108.217,4.25084,326.324,-9.2996,108.217
2095,2095,155.3892,14.9332,5.68674,0.0,0,3.81651,0.0,0.476722,108.221,4.23205,326.193,-9.29949,108.221
2096,2096,155.3894,14.9713,5.71437,0.0,0,3.79785,0.0,0.4788096,108.135,4.21202,326.063,-9.29928,108.135
2097,2097,155.3896,15.008,5.72673,0.0,0,3.77919,0.0,0.480126,108.237,4.19099,325.932,-9.299262,108.237
2098,2098,155.3898,15.0362,5.74378,0.0,0,3.76054,0.0,0.482859,108.217,4.17235,325.802,-9.29904,108.217
2099,2099,155.39,15.0554,5.77111,0.0,0,3.74188,0.0,0.485143,107.995,4.15208,325.671,-9.29953,107.995
2100,2100,155.3902,15.0786,5.78598,0.0,0,3.72323,0.0,0.486412,107.964,4.13293,325.541,-9.2993,107.964
2101,2101,155.3904,15.1081,5.802,0.0,0,3.70457,0.0,0.489077,107.963,4.11341,325.41,-9.29868,107.963
2102,2102,155.3906,15.1383,5.82796,0.0,0,3.68591,0.0,0.491577,107.835,4.09263,325.28,-9.2989,107.835
2103,2103,155.3908,15.1698,5.84507,0.0,0,3.66726,0.0,0.492846,107.833,4.07398,325.149,-9.29891,107.833
2104,2104,155.391,15.20761,5.86103,0.0,0,3.6486,0.0,0.495462,107.889,4.05408,325.019,-9.29891,107.889
2105,2105,155.3912,15.2444,5.88583,0.0,0,3.62995,0.0,0.4981823,107.818,4.03448,324.888,-9.29898,107.818
2106,2106,155.3914,15.2867,5.90567,0.0,0,3.61129,0.0,0.499474,107.852,4.01487,324.758,-9.29903,107.852
2107,2107,155.3916,15.3298,5.92106,0.0,0,3.59263,0.0,0.501877,107.95,3.9953,324.627,-9.29903,107.95
2108,2108,155.3918,15.3657,5.94166,0.0,0,3.57435,0.0,0.504468,107.925,3.97545,324.496,-9.29928,107.925
2109,2109,155.392,15.3879,5.96137,0.0,0,3.55652,0.0,0.505673,107.815,3.95748,324.366,-9.29983,107.815
2110,2110,155.3922,15.4008,5.97754,0.0,0,3.538765,0.0,0.507968,107.687,3.93904,324.235,-9.29931,107.687
2111,2111,155.3924,15.4248,5.99717,0.0,0,3.52102,0.0,0.510724,107.59,3.91787,324.105,-9.29862,107.59
2112,2112,155.3926,15.4566,6.01868,0.0,0,3.50327,0.0,0.512135,107.52,3.89918,323.974,-9.29858,107.52
2113,2113,155.3928,15.4846,6.03577,0.0,0,3.48552,0.0,0.514195,107.484,3.88152,323.844,-9.29833,107.484
2114,2114,155.393,15.5202,6.05291,0.0,0,3.46777,0.0,0.5169518,107.497,3.86187,323.713,-9.29827,107.497
2115,2115,155.3932,15.5616,6.07577,0.0,0,3.45002,0.0,0.518558,107.473,3.84283,323.583,-9.29836,107.473
2116,2116,155.3934,15.6012,6.094552,0.0,0,3.432277,0.0,0.520524,107.489,3.82359,323.452,-9.298687,107.489
2117,2117,155.3936,15.6442,6.109478,0.0,0,3.41453,0.0,0.52333,107.581,3.804394,323.322,-9.29897,107.581
2118,2118,155.3938,15.67928,6.13247,0.0,0,3.39678,0.0,0.525233,107.506,3.78653,323.191,-9.29951,107.506
2119,2119,155.394,15.7049,6.15247,0.0,0,3.37903,0.0,0.527073,107.406,3.76783,323.061,-9.29946,107.406
2120,2120,155.3942,15.7299,6.16555,0.0,0,3.36128,0.0,0.529635,107.397,3.748961,322.93,-9.29894,107.397
2121,2121,155.3944,15.7554,6.18841,0.0,0,3.34354,0.0,0.53174,107.255,3.7325,322.7999,-9.2989,107.255
2122,2122,155.3946,15.782,6.21041,0.0,0,3.32579,0.0,0.533442,107.132,3.71437,322.6694,-9.29853,107.132
2123,2123,155.3948,15.8193,6.22155,0.0,0,3.30804,0.0,0.535787,107.23,3.69345,322.539,-9.29859,107.23
2124,2124,155.395,15.8659,6.24264,0.0,0,3.29029,0.0,0.537999,107.253,3.67427,322.408,-9.2987,107.253
2125,2125,155.3952,15.9101,6.26573,0.0,0,3.27254,0.0,0.539563,107.23,3.65645,322.278,-9.298645,107.23
2126,2126,155.3954,15.9562,6.27578,0.0,0,3.2548,0.0,0.541742,107.4,3.63863,322.147,-9.29868,107.4
2127,2127,155.3956,15.9961,6.29653,0.0,0,3.23705,0.0,0.544238,107.377,3.62063,322.017,-9.29868,107.377
2128,2128,155.3958,16.0279,6.32278,0.0,0,3.2193,0.0,0.546023,107.222,3.6016,321.886,-9.29891,107.222
2129,2129,155.396,16.0563,6.33309,0.0,0,3.20155,0.0,0.548143,107.266,3.58169,321.756,-9.29897,107.266
2130,2130,155.3962,16.0866,6.3527,0.0,0,3.1838,0.0,0.550938,107.192,3.56446,321.625,-9.29951,107.192
2131,2131,155.3964,16.1165,6.37933,0.0,0,3.16606,0.0,0.5527848,107.015,3.54722,321.495,-9.299489,107.015
2132,2132,155.3966,16.1442,6.38875,0.0,0,3.14831,0.0,0.554459,107.066,3.52809,321.364,-9.29893,107.066
2133,2133,155.3968,16.1801,6.407104,0.0,0,3.13092,0.0,0.55729,107.043,3.51006,321.234,-9.29861,107.043
2134,2134,155.397,16.22463,6.4348,0.0,0,3.11395,0.0,0.559319,106.944,3.49193,321.103,-9.29823,106.944
2135,2135,155.3972,16.2749,6.445446,0.0,0,3.09706,0.0,0.560899,107.123,3.47368,320.973,-9.29847,107.123
2136,2136,155.3974,16.3233,6.46171,0.0,0,3.08018,0.0,0.563743,107.209,3.45625,320.842,-9.29852,107.209
2137,2137,155.3976,16.3642,6.48815,0.0,0,3.06329,0.0,0.565766,107.098,3.438653,320.712,-9.298336,107.098
2138,2138,155.3978,16.39889,6.50073,0.0,0,3.04641,0.0,0.567204,107.144,3.41928,320.5813,-9.29866,107.144
2139,2139,155.398,16.4217,6.51701,0.0,0,3.02953,0.0,0.570198,107.058,3.40133,320.451,-9.29897,107.058
2140,2140,155.3982,16.4446,6.54418,0.0,0,3.01264,0.0,0.572647,106.815,3.38516,320.32,-9.29894,106.815
2141,2141,155.3984,16.48107,6.55918,0.0,0,2.99576,0.0,0.573985,106.835,3.36606,320.19,-9.29894,106.835
2142,2142,155.3986,16.5163,6.57284,0.0,0,2.97887,0.0,0.576701,106.865,3.34707,320.059,-9.29894,106.865
2143,2143,155.3988,16.5548,6.59646,0.0,0,2.96199,0.0,0.579153,106.771,3.32798,319.8793,-9.29865,106.771
2144,2144,155.399,16.60457,6.61188,0.0,0,2.94511,0.0,0.580174,106.867,3.30811,319.65,-9.2981,106.867
2145,2145,155.3992,16.6549,6.625176,0.0,0,2.92822,0.0,0.582724,106.997,3.28921,319.42,-9.29806,106.997
2146,2146,155.3994,16.7023,6.6474,0.0,0,2.91134,0.0,0.585454,106.975,3.271745,319.191,-9.2983,106.975
2147,2147,155.3996,16.75071,6.66468,0.0,0,2.89445,0.0,0.586506,107.032,3.255631,318.962,-9.29833,107.032
2148,2148,155.3998,16.7936,6.67819,0.0,0,2.87757,0.0,0.588899,107.107,3.23805,318.732,-9.29836,107.107
2149,2149,155.4,16.821,6.69901,0.0,0,2.86069,0.0,0.591845,106.974,3.2186,318.503,-9.29856,106.974
2150,2150,155.4002,16.8429,6.719183,0.0,0,2.8438,0.0,0.593166,106.815,3.20056,318.273,-9.29891,106.815
2151,2151,155.4004,16.875,6.73459,0.0,0,2.82692,0.0,0.5955531,106.79,3.18267,318.044,-9.299,106.79
2152,2152,155.4006,16.9088,6.75334,0.0,0,2.810034,0.0,0.598531,106.726,3.16754,317.814,-9.29899,106.726
2153,2153,155.4008,16.9473,6.77444,0.0,0,2.79315,0.0,0.599966,106.654,3.15107,317.585,-9.29872,106.654
2154,2154,155.401,16.9994,6.79003,0.0,0,2.77627,0.0,0.602046,106.749,3.13158,317.3555,-9.29863,106.749
2155,2155,155.4012,17.0574,6.80507,0.0,0,2.75938,0.0,0.604806,106.888,3.11511,317.126,-9.29879,106.888
2156,2156,155.4014,17.1153,6.82661,0.0,0,2.7425,0.0,0.606346,106.927,3.09704,316.897,-9.29847,106.927
2157,2157,155.4016,17.16073,6.84288,0.0,0,2.72561,0.0,0.608253,106.966,3.07725,316.667,-9.29821,106.966
2158,2158,155.4018,17.1919,6.854495,0.0,0,2.70907,0.0,0.611035,106.985,3.05987,316.438,-9.29817,106.985
2159,2159,155.402,17.2144,6.87704,0.0,0,2.69293,0.0,0.612855,106.784,3.04212,316.208,-9.29799,106.784
2160,2160,155.4022,17.2361,6.89634,0.0,0,2.67687,0.0,0.614602,106.626,3.0234,315.979,-9.29805,106.626
2161,2161,155.4024,17.276,6.906002,0.0,0,2.66081,0.0,0.6172,106.726,3.00627,315.749,-9.29822,106.726
2162,2162,155.4026,17.3244,6.92719,0.0,0,2.64475,0.0,0.61929,106.702,2.99106,315.52,-9.29856,106.702
2163,2163,155.4028,17.3728,6.94823,0.0,0,2.62869,0.0,0.621012,106.68,2.97297,315.291,-9.29865,106.68
2164,2164,155.403,17.4335,6.95773,0.0,0,2.61263,0.0,0.623451,106.907,2.95439,315.061,-9.29842,106.907
2165,2165,155.4032,17.4951,6.97913,0.0,0,2.59657,0.0,0.625856,106.955,2.93853,314.832,-9.29869,106.955
2166,2166,155.4034,17.54875,7.00296,0.0,0,2.58051,0.0,0.627677,106.916,2.9219,314.602,-9.29862,106.916
2167,2167,155.4036,17.5846,7.01164,0.0,0,2.56445,0.0,0.62994,107,2.90371,314.373,-9.29764,107
2168,2168,155.4038,17.6115,7.03079,0.0,0,2.54839,0.0,0.632506,106.867,2.88496,314.143,-9.2969,106.867
2169,2169,155.404,17.6523,7.05575,0.0,0,2.53233,0.0,0.63432,106.727,2.86895,313.914,-9.29686,106.727
2170,2170,155.4042,17.6921,7.06407,0.0,0,2.51627,0.0,0.636346,106.839,2.85397,313.685,-9.29756,106.839
2171,2171,155.4044,17.73774,7.08245,0.0,0,2.50021,0.0,0.63919,106.828,2.839,313.455,-9.2982,106.828
2172,2172,155.4046,17.7892,7.10904,0.0,0,2.48415,0.0,0.641178,106.722,2.82229,313.226,-9.29807,106.722
2173,2173,155.4048,17.8333,7.11689,0.0,0,2.46809,0.0,0.642808,106.863,2.80421,312.996,-9.2978,106.863
2174,2174,155.405,17.8877,7.13249,0.0,0,2.45203,0.0,0.645639,106.944,2.78606,312.767,-9.297677,106.944
2175,2175,155.4052,17.948,7.15906,0.0,0,2.43597,0.0,0.647742,106.885,2.76851,312.537,-9.29794,106.885
2176,2176,155.4054,17.9962,7.16942,0.0,0,2.41991,0.0,0.649229,107.008,2.75144,312.308,-9.29822,107.008
2177,2177,155.4056,18.0336,7.18443,0.0,0,2.40385,0.0,0.652257,106.993,2.73391,312.079,-9.29795,106.993
2178,2178,155.4058,18.0699,7.21012,0.0,0,2.38779,0.0,0.65454,106.799,2.71726,311.849,-9.29792,106.799
2179,2179,155.406,18.0992,7.22104,0.0,0,2.37173,0.0,0.655769,106.799,2.70089,311.62,-9.29812,106.799
2180,2180,155.4062,18.1327,7.234139,0.0,0,2.35567,0.0,0.658624,106.788,2.68536,311.3902,-9.29761,106.788
2181,2181,155.4064,18.1785,7.25853,0.0,0,2.33961,0.0,0.661032,106.667,2.66739,311.161,-9.29766,106.667
2182,2182,155.4066,18.2305,7.27106,0.0,0,2.32355,0.0,0.662051,106.772,2.64883,310.931,-9.298274,106.772
2183,2183,155.4068,18.2933,7.28382,0.0,0,2.30781,0.0,0.664873,106.934,2.63308,310.7019,-9.2985,106.934
2184,2184,155.407,18.3559,7.30794,0.0,0,2.29246,0.0,0.667685,106.91,2.61725,310.472,-9.298439,106.91
2185,2185,155.4072,18.4101,7.32294,0.0,0,2.27718,0.0,0.668736,106.983,2.60121,310.243,-9.29798,106.983
2186,2186,155.4074,18.449,7.33458,0.0,0,2.2619,0.0,0.671337,107.02,2.58273,310.014,-9.29785,107.02
2187,2187,155.4076,18.4806,7.35555,0.0,0,2.246628,0.0,0.67413,106.863,2.564389,309.784,-9.297574,106.863
2188,2188,155.4078,18.5202,7.37202,0.0,0,2.23135,0.0,0.675165,106.823,2.54841,309.555,-9.29721,106.823
2189,2189,155.408,18.5687,7.38419,0.0,0,2.21608,0.0,0.677584,106.904,2.53056,309.325,-9.29725,106.904
2190,2190,155.4082,18.616,7.40395,0.0,0,2.2008,0.0,0.680576,106.853,2.514,309.096,-9.29706,106.853
2191,2191,155.4084,18.6612,7.42261,0.0,0,2.18552,0.0,0.681818,106.806,2.49845,308.866,-9.29691,106.806
2192,2192,155.4086,18.7104,7.43669,0.0,0,2.17025,0.0,0.684205,106.855,2.48235,308.637,-9.29748,106.855
2193,2193,155.4088,18.7658,7.45418,0.0,0,2.15497,0.0,0.687372,106.883,2.46549,308.574,-9.298131,106.883
2194,2194,155.409,18.8248,7.47428,0.0,0,2.1397,0.0,0.688816,106.886,2.44818,308.677,-9.29821,106.886
2195,2195,155.4092,18.8788,7.48938,0.0,0,2.12442,0.0,0.691027,106.941,2.43284,308.78,-9.29846,106.941
2196,2196,155.4094,18.9327,7.50313,0.0,0,2.10914,0.0,0.694134,107.017,2.41663,308.883,-9.2985,107.017
2197,2197,155.4096,18.9835,7.52394,0.0,0,2.09387,0.0,0.695764,106.957,2.399771,308.986,-9.29795,106.957
2198,2198,155.4098,19.0275,7.5398,0.0,0,2.07859,0.0,0.697552,106.939,2.38229,309.0892,-9.29817,106.939
2199,2199,155.41,19.0685,7.54971,0.0,0,2.06332,0.0,0.700256,107.003,2.36536,309.192,-9.2984,107.003
2200,2200,155.4102,19.1086,7.56947,0.0,0,2.04804,0.0,0.70195,106.896,2.34932,309.295,-9.29742,106.896
2201,2201,155.4104,19.1538,7.586719,0.0,0,2.03276,0.0,0.703585,106.858,2.33266,309.398,-9.29698,106.858
2202,2202,155.4106,19.2107,7.59578,0.0,0,2.01749,0.0,0.706341,107.022,2.31549,309.502,-9.297,107.022
2203,2203,155.4108,19.2693,7.61765,0.0,0,2.00221,0.0,0.7085644,106.977,2.30088,309.605,-9.297266,106.977
2204,2204,155.411,19.33342,7.63892,0.0,0,1.98694,0.0,0.710336,106.971,2.28564,309.708,-9.29786,106.971
2205,2205,155.4112,19.3945,7.64646,0.0,0,1.97166,0.0,0.712837,107.18,2.26948,309.811,-9.29741,107.18
2206,2206,155.4114,19.44445,7.66576,0.0,0,1.95638,0.0,0.715335,107.126,2.25307,309.914,-9.2975,107.126
2207,2207,155.4116,19.4871,7.68941,0.0,0,1.94111,0.0,0.7172547,106.955,2.23545,310.017,-9.29777,106.955
2208,2208,155.4118,19.5236,7.69769,0.0,0,1.92614,0.0,0.719639,107.013,2.22019,310.12,-9.29781,107.013
2209,2209,155.412,19.5632,7.71566,0.0,0,1.91154,0.0,0.722413,106.92,2.20686,310.223,-9.29831,106.92
2210,2210,155.4122,19.6073,7.73904,0.0,0,1.897,0.0,0.7241593,106.757,2.19059,310.326,-9.29831,106.757
2211,2211,155.4124,19.6592,7.745141,0.0,0,1.88247,0.0,0.725995,106.934,2.17496,310.4292,-9.29769,106.934
2212,2212,155.4126,19.7187,7.75999,0.0,0,1.86794,0.0,0.728726,107,2.15847,310.532,-9.2972,107
2213,2213,155.4128,19.783,7.78396,0.0,0,1.8534,0.0,0.730474,106.931,2.141324,310.635,-9.29702,106.931
2214,2214,155.413,19.8423,7.7906,0.0,0,1.83887,0.0,0.732022,107.135,2.12754,310.738,-9.29671,107.135
2215,2215,155.4132,19.8961,7.80497,0.0,0,1.82434,0.0,0.735085,107.174,2.11139,310.842,-9.29597,107.174
2216,2216,155.4134,19.9477,7.83004,0.0,0,1.80981,0.0,0.737158,107.011,2.09493,310.945,-9.29566,107.011
2217,2217,155.4136,19.9895,7.83831,0.0,0,1.79528,0.0,0.738437,107.09,2.08061,311.048,-9.29702,107.09
2218,2218,155.4138,20.0352,7.8516,0.0,0,1.78074,0.0,0.741469,107.1,2.06361,311.151,-9.29804,107.1
2219,2219,155.414,20.084,7.87572,0.0,0,1.76621,0.0,0.743727,106.934,2.04526,311.254,-9.29806,106.934
2220,2220,155.4142,20.13031,7.88584,0.0,0,1.75168,0.0,0.745015,107.001,2.029984,311.3569,-9.29813,107.001
2221,2221,155.4144,20.1832,7.89819,0.0,0,1.73715,0.0,0.748158,107.062,2.01559,311.46,-9.29815,107.062
2222,2222,155.4146,20.24332,7.92298,0.0,0,1.72262,0.0,0.750831,106.939,2.00085,311.563,-9.29749,106.939
2223,2223,155.4148,20.31422,7.935667,0.0,0,1.70808,0.0,0.751879,107.086,1.98449,311.666,-9.29626,107.086
2224,2224,155.415,20.3831,7.94585,0.0,0,1.69355,0.0,0.754657,107.266,1.96957,311.769,-9.29592,107.266
2225,2225,155.4152,20.4408,7.967279,0.0,0,1.67902,0.0,0.757331,107.184,1.954181,311.872,-9.29584,107.184
2226,2226,155.4154,20.4961,7.9808,0.0,0,1.66449,0.0,0.758149,107.23,1.93663,311.975,-9.29612,107.23
2227,2227,155.4156,20.5458,7.9911,0.0,0,1.64996,0.0,0.760812,107.303,1.92177,312.078,-9.29702,107.303
2228,2228,155.4158,20.5943,8.01069,0.0,0,1.63542,0.0,0.763758,107.201,1.909179,312.182,-9.29699,107.201
2229,2229,155.416,20.6454,8.0262,0.0,0,1.62089,0.0,0.764724,107.184,1.89414,312.285,-9.29668,107.184
2230,2230,155.4162,20.6911,8.03741,0.0,0,1.60636,0.0,0.76727,107.217,1.87858,312.3877,-9.29613,107.217
2231,2231,155.4164,20.7457,8.05488,0.0,0,1.59183,0.0,0.770361,107.18,1.862902,312.491,-9.29598,107.18
2232,2232,155.4166,20.8077,8.071743,0.0,0,1.5773,0.0,0.771409,107.191,1.84701,312.594,-9.29643,107.191
2233,2233,155.4168,20.874,8.083622,0.0,0,1.56305,0.0,0.7737267,107.314,1.830716,312.6969,-9.2965,107.314
2234,2234,155.417,20.9441,8.098279,0.0,0,1.54916,0.0,0.776881,107.404,1.81645,312.8,-9.29605,107.404
2235,2235,155.4172,21.01005,8.117321,0.0,0,1.53534,0.0,0.778134,107.389,1.8016,312.903,-9.29611,107.389
2236,2236,155.4174,21.0697,8.13079,0.0,0,1.52151,0.0,0.780139,107.443,1.78752,313.006,-9.29646,107.443
2237,2237,155.4176,21.1218,8.14177,0.0,0,1.50769,0.0,0.783229,107.505,1.77429,313.109,-9.29647,107.505
2238,2238,155.4178,21.1698,8.16168,0.0,0,1.49387,0.0,0.784824,107.377,1.75818,313.212,-9.29625,107.377
2239,2239,155.418,21.2115,8.1768,0.0,0,1.48004,0.0,0.786669,107.306,1.74309,313.315,-9.29617,107.306
2240,2240,155.4182,21.25807,8.18538,0.0,0,1.46622,0.0,0.78958,107.38,1.72853,313.418,-9.29622,107.38
2241,2241,155.4184,21.3167,8.20538,0.0,0,1.45239,0.0,0.791455,107.3,1.71337,313.522,-9.29615,107.3
2242,2242,155.4186,21.3832,8.222167,0.0,0,1.43857,0.0,0.793086,107.319,1.69888,313.6246,-9.29649,107.319
2243,2243,155.4188,21.4665,8.22932,0.0,0,1.42475,0.0,0.795799,107.601,1.68671,313.83,-9.29664,107.601
2244,2244,155.419,21.5471,8.24883,0.0,0,1.41092,0.0,0.79805,107.634,1.673007,314.139,-9.296608,107.634
2245,2245,155.4192,21.6133,8.2677,0.0,0,1.3971,0.0,0.799629,107.605,1.657537,314.448,-9.2969,107.605
2246,2246,155.4194,21.6758,8.27294,0.0,0,1.38327,0.0,0.802101,107.816,1.64247,314.7565,-9.29764,107.816
2247,2247,155.4196,21.7253,8.29072,0.0,0,1.36945,0.0,0.804628,107.721,1.62865,315.065,-9.2981,107.721
2248,2248,155.4198,21.7693,8.3118,0.0,0,1.35563,0.0,0.806221,107.534,1.61569,315.374,-9.29778,107.534
2249,2249,155.42,21.8238,8.31623,0.0,0,1.3418,0.0,0.808282,107.718,1.60153,315.683,-9.29686,107.718
2250,2250,155.4202,21.8839,8.3323,0.0,0,1.32798,0.0,0.811016,107.705,1.5849,315.991,-9.29574,107.705
2251,2251,155.4204,21.9466,8.3557,0.0,0,1.31415,0.0,0.81279,107.56,1.57024,316.3,-9.29594,107.56
2252,2252,155.4206,22.0202,8.36164,0.0,0,1.30033,0.0,0.814733,107.805,1.55717,316.609,-9.29664,107.805
2253,2253,155.4208,22.1063,8.37712,0.0,0,1.28651,0.0,0.817959,107.925,1.54241,316.917,-9.2966,107.925
2254,2254,155.421,22.1866,8.40092,0.0,0,1.27268,0.0,0.819889,107.851,1.52839,317.226,-9.29668,107.851
2255,2255,155.4212,22.2558,8.4063,0.0,0,1.25886,0.0,0.821313,108.081,1.512779,317.535,-9.29685,108.081
2256,2256,155.4214,22.30932,8.41909,0.0,0,1.24503,0.0,0.824438,108.09,1.49689,317.843,-9.29686,108.09
2257,2257,155.4216,22.3574,8.44218,0.0,0,1.23121,0.0,0.826392,107.867,1.48377,318.152,-9.29689,107.867
2258,2258,155.4218,22.4123,8.44902,0.0,0,1.21766,0.0,0.827523,107.996,1.4691,318.461,-9.29688,107.996
2259,2259,155.422,22.4713,8.46048,0.0,0,1.20445,0.0,0.830753,108.053,1.45348,318.769,-9.29668,108.053
2260,2260,155.4222,22.5419,8.48479,0.0,0,1.1913,0.0,0.833145,107.909,1.4409,319.078,-9.29665,107.909
2261,2261,155.4224,22.6191,8.493763,0.0,0,1.17815,0.0,0.834145,108.1,1.42626,319.3866,-9.29623,108.1
2262,2262,155.4226,22.6985,8.5035,0.0,0,1.165,0.0,0.837257,108.284,1.40923,319.695,-9.2954,108.284
2263,2263,155.4228,22.7788,8.52725,0.0,0,1.15186,0.0,0.8399902,108.189,1.39579,320.004,-9.29505,108.189
2264,2264,155.423,22.8612,8.53928,0.0,0,1.13871,0.0,0.840896,108.337,1.38295,320.313,-9.29511,108.337
2265,2265,155.4232,22.9258,8.54845,0.0,0,1.12556,0.0,0.843965,108.458,1.36977,320.621,-9.29565,108.458
2266,2266,155.4234,22.9863,8.56926,0.0,0,1.11241,0.0,0.847024,108.322,1.354113,320.93,-9.29586,108.322
2267,2267,155.4236,23.0501,8.5826,0.0,0,1.09926,0.0,0.847707,108.351,1.33884,321.239,-9.295805,108.351
2268,2268,155.4238,23.1069,8.59152,0.0,0,1.08612,0.0,0.850316,108.436,1.32307,321.5473,-9.29582,108.436
2269,2269,155.424,23.1658,8.60973,0.0,0,1.07297,0.0,0.85339,108.34,1.30927,321.856,-9.29583,108.34
2270,2270,155.4242,23.231,8.62365,0.0,0,1.05982,0.0,0.854213,108.359,1.29718,322.165,-9.29582,108.359
2271,2271,155.4244,23.3062,8.63241,0.0,0,1.04667,0.0,0.856548,108.529,1.28213,322.473,-9.29534,108.529
2272,2272,155.4246,23.3889,8.64731,0.0,0,1.03352,0.0,0.85957,108.607,1.26812,322.782,-9.29512,108.607
2273,2273,155.4248,23.4731,8.66322,0.0,0,1.02038,0.0,0.860549,108.668,1.2545,323.091,-9.29509,108.668
2274,2274,155.425,23.554,8.67343,0.0,0,1.00723,0.0,0.862752,108.83,1.2409,323.399,-9.29501,108.83
2275,2275,155.4252,23.6243,8.68633,0.0,0,0.99408,0.0,0.8660416,108.886,1.22688,323.708,-9.29467,108.886
2276,2276,155.4254,23.6842,8.70542,0.0,0,0.980932,0.0,0.8674646,108.763,1.2126,324.017,-9.29446,108.763
2277,2277,155.4256,23.7438,8.71837,0.0,0,0.967784,0.0,0.86948,108.765,1.19739,324.325,-9.29471,108.765
2278,2278,155.4258,23.8032,8.72918,0.0,0,0.954636,0.0,0.872782,108.809,1.18396,324.634,-9.29544,108.809
2279,2279,155.426,23.8744,8.74876,0.0,0,0.941488,0.0,0.874524,108.722,1.17218,324.943,-9.29522,108.722
2280,2280,155.4262,23.9527,8.76252,0.0,0,0.92834,0.0,0.876265,108.787,1.15621,325.2514,-9.29471,108.787
2281,2281,155.4264,24.031,8.76949,0.0,0,0.915192,0.0,0.879266,108.995,1.14059,325.56,-9.29518,108.995
2282,2282,155.4266,24.1158,8.78848,0.0,0,0.902044,0.0,0.881222,108.975,1.127522,325.869,-9.29521,108.975
2283,2283,155.4268,24.2014,8.803504,0.0,0,0.889161,0.0,0.8827073,109.041,1.11445,326.1774,-9.29506,109.041
2284,2284,155.427,24.2741,8.80754,0.0,0,0.876596,0.0,0.885332,109.282,1.10169,326.486,-9.2951,109.282
2285,2285,155.4272,24.3397,8.82541,0.0,0,0.864089,0.0,0.887501,109.193,1.08886,326.795,-9.2944,109.193
2286,2286,155.4274,24.4041,8.844265,0.0,0,0.851585,0.0,0.888927,109.075,1.07637,327.103,-9.294363,109.075
2287,2287,155.4276,24.4645,8.848321,0.0,0,0.839081,0.0,0.891363,109.257,1.06419,327.412,-9.29491,109.257
2288,2288,155.4278,24.5242,8.86422,0.0,0,0.826577,0.0,0.894009,109.179,1.04956,327.721,-9.29444,109.179
2289,2289,155.428,24.5961,8.884409,0.0,0,0.814073,0.0,0.895571,109.061,1.035787,328.029,-9.29426,109.061
2290,2290,155.4282,24.68215,8.8883,0.0,0,0.8015694,0.0,0.897676,109.357,1.02324,328.338,-9.29399,109.357
2291,2291,155.4284,24.7626,8.90362,0.0,0,0.789065,0.0,0.900633,109.379,1.00902,328.647,-9.29358,109.379
2292,2292,155.4286,24.8458,8.92541,0.0,0,0.776561,0.0,0.902308,109.268,0.995205,328.955,-9.29388,109.268
2293,2293,155.4288,24.931,8.92855,0.0,0,0.7640574,0.0,0.903961,109.573,0.981724,329.16,-9.29451,109.573
2294,2294,155.429,25.0044,8.94077,0.0,0,0.751553,0.0,0.907032,109.626,0.969634,329.26,-9.29428,109.626
2295,2295,155.4292,25.0763,8.96303,0.0,0,0.739049,0.0,0.908891,109.448,0.955392,329.3595,-9.29428,109.448
2296,2296,155.4294,25.147,8.96746,0.0,0,0.726545,0.0,0.910224,109.658,0.941897,329.459,-9.29427,109.658
2297,2297,155.4296,25.21228,8.97917,0.0,0,0.714041,0.0,0.913496,109.682,0.929215,329.559,-9.29361,109.682
2298,2298,155.4298,25.2773,9.00215,0.0,0,0.701537,0.0,0.915564,109.451,0.915818,329.659,-9.29382,109.451
2299,2299,155.43,25.3527,9.00769,0.0,0,0.689033,0.0,0.916465,109.654,0.904984,329.759,-9.294528,109.654
2300,2300,155.4302,25.4275,9.01695,0.0,0,0.676529,0.0,0.91973,109.769,0.8912093,329.859,-9.2943,109.769
2301,2301,155.4304,25.4993,9.03877,0.0,0,0.664025,0.0,0.9221158,109.587,0.876249,329.9588,-9.29418,109.587
2302,2302,155.4306,25.5778,9.04638,0.0,0,0.651521,0.0,0.922784,109.753,0.864213,330.059,-9.29472,109.753
2303,2303,155.4308,25.6602,9.05405,0.0,0,0.639017,0.0,0.925813,109.932,0.851515,330.159,-9.2949,109.932
2304,2304,155.431,25.7401,9.07425,0.0,0,0.626513,0.0,0.928466,109.815,0.837787,330.258,-9.29462,109.815
2305,2305,155.4312,25.8185,9.08412,0.0,0,0.614009,0.0,0.929069,109.924,0.825191,330.358,-9.29399,109.924
2306,2306,155.4314,25.8959,9.091691,0.0,0,0.6015054,0.0,0.932031,110.08,0.813174,330.458,-9.29335,110.08
2307,2307,155.4316,25.9688,9.11085,0.0,0,0.589001,0.0,0.935082,109.95,0.800359,330.558,-9.293046,109.95
2308,2308,155.4318,26.029,9.12279,0.0,0,0.576745,0.0,0.935634,109.93,0.789671,330.658,-9.29353,109.93
2309,2309,155.432,26.09881,9.12974,0.0,0,0.564788,0.0,0.938216,110.065,0.777166,330.758,-9.29391,110.065
2310,2310,155.4322,26.189,9.14525,0.0,0,0.552886,0.0,0.94124,110.086,0.762271,330.858,-9.29404,110.086
2311,2311,155.4324,26.2751,9.15836,0.0,0,0.540986,0.0,0.941812,110.143,0.748539,330.958,-9.29459,110.143
2312,2312,155.4326,26.36075,9.16612,0.0,0,0.529086,0.0,0.944144,110.322,0.73513,331.058,-9.29515,110.322
2313,2313,155.4328,26.4476,9.1798,0.0,0,0.517186,0.0,0.9473967,110.366,0.723762,331.157,-9.29518,110.366
2314,2314,155.433,26.5277,9.19522,0.0,0,0.505286,0.0,0.94813,110.338,0.7128132,331.257,-9.294116,110.338
2315,2315,155.4332,26.6044,9.20449,0.0,0,0.493386,0.0,0.950159,110.439,0.699868,331.357,-9.29359,110.439
2316,2316,155.4334,26.6753,9.21526,0.0,0,0.4814859,0.0,0.9536494,110.479,0.68741,331.457,-9.29328,110.479
2317,2317,155.4336,26.7391,9.23165,0.0,0,0.4695859,0.0,0.954779,110.356,0.674568,331.557,-9.29265,110.356
2318,2318,155.4338,26.8103,9.24188,0.0,0,0.457686,0.0,0.956371,110.407,0.662756,331.657,-9.29242,110.407
2319,2319,155.434,26.8887,9.24892,0.0,0,0.445786,0.0,0.959517,110.563,0.651695,331.757,-9.29217,110.563
2320,2320,155.4342,26.9589,9.26577,0.0,0,0.4338859,0.0,0.960957,110.45,0.641054,331.857,-9.29259,110.45
2321,2321,155.4344,27.0393,9.27756,0.0,0,0.421986,0.0,0.962272,110.498,0.628565,331.956,-9.2938,110.498
2322,2322,155.4346,27.1404,9.282259,0.0,0,0.410086,0.0,0.965179,110.798,0.613985,332.056,-9.29424,110.798
2323,2323,155.4348,27.2421,9.2999,0.0,0,0.398186,0.0,0.967219,110.788,0.603625,332.156,-9.29367,110.788
2324,2324,155.435,27.3301,9.31438,0.0,0,0.3862859,0.0,0.9686929,110.797,0.593785,332.2561,-9.29355,110.797
2325,2325,155.4352,27.4061,9.31753,0.0,0,0.374386,0.0,0.971357,111.028,0.581549,332.356,-9.29355,111.028
2326,2326,155.4354,27.4834,9.33412,0.0,0,0.362486,0.0,0.973571,110.938,0.570167,332.456,-9.29318,110.938
2327,2327,155.4356,27.555,9.35102,0.0,0,0.350586,0.0,0.9747858,110.816,0.559034,332.556,-9.293,110.816
2328,2328,155.4358,27.6268,9.35261,0.0,0,0.3386859,0.0,0.977025,111.065,0.546821,332.656,-9.29281,111.065
2329,2329,155.436,27.7053,9.36631,0.0,0,0.326786,0.0,0.979547,111.045,0.535354,332.756,-9.29224,111.045
2330,2330,155.4362,27.7824,9.38514,0.0,0,0.314886,0.0,0.980765,110.892,0.525095,332.855,-9.29194,110.892