File: examples/hot axisymmetric compression example/data/04 corrected data/testID_0146.csv
level_0,index,Time(sec),Force(kN),Jaw(mm),PowAngle(deg),Power(W),Pram,PTemp,Strain,Stress(MPa),Stroke(mm),TC1(C),wedge(mm),uncorrected stress
2438,2438,212.0228,0.459781,0.0881852,0.0,0,9.09223,0.0,0.00580856,5.56994,10.1415,502.888,-9.20869,5.56994
2439,2439,212.023,1.40445,0.103423,0.0,0,9.06297,0.0,0.00646069,16.9955,10.10292,502.987,-9.20847,16.9955
2440,2440,212.0232,2.86781,0.12923,0.0,0,9.03371,0.0,0.00842992,34.6398,10.0713,503.086,-9.20855,34.6398
2441,2441,212.0234,3.90292,0.169142,0.0,0,9.00444,0.0,0.01086496,47.0081,10.0447,503.185,-9.20836,47.0081
2442,2442,212.0236,4.355937,0.202289,0.0,0,8.97518,0.0,0.0130232,52.3395,10.0168,503.284,-9.20671,52.3395
2443,2443,212.0238,4.51322,0.228527,0.0,0,8.94591,0.0,0.0150991,54.127,9.97842,503.383,-9.204567,54.127
2444,2444,212.024,4.58508,0.285346,0.0,0,8.91665,0.0,0.0183422,54.7634,9.92936,503.482,-9.20372,54.7634
2445,2445,212.0242,4.474535,0.3728416,0.0,0,8.88739,0.0,0.0236825,53.1044,9.87908,503.581,-9.20367,53.1044
2446,2446,212.0244,4.20073,0.455011,0.0,0,8.85812,0.0,0.0298611,49.5562,9.829237,503.68,-9.20366,49.5562
2447,2447,212.0246,4.13237,0.5195902,0.0,0,8.82886,0.0,0.0345693,48.519,9.77266,503.779,-9.20386,48.519
2448,2448,212.0248,4.45081,0.567003,0.0,0,8.79959,0.0,0.037605,52.0752,9.71018,503.879,-9.204071,52.0752
2449,2449,212.025,4.6086,0.61244,0.0,0,8.77033,0.0,0.04098279,53.7401,9.64657,503.978,-9.20432,53.7401
2450,2450,212.0252,4.46715,0.686133,0.0,0,8.74165,0.0,0.0458653,51.8059,9.58703,504.0766,-9.20512,51.8059
2451,2451,212.0254,4.54845,0.759243,0.0,0,8.71369,0.0,0.0507073,52.4608,9.533906,504.176,-9.20531,52.4608
2452,2452,212.0256,4.88093,0.787289,0.0,0,8.68585,0.0,0.0535996,56.1771,9.481637,504.275,-9.20476,56.1771
2453,2453,212.0258,4.90112,0.796956,0.0,0,8.65802,0.0,0.0546935,56.3684,9.43142,504.374,-9.20468,56.3684
2454,2454,212.026,4.49411,0.817211,0.0,0,8.63019,0.0,0.0554355,51.6085,9.38555,504.473,-9.20444,51.6085
2455,2455,212.0262,4.18882,0.848535,0.0,0,8.60235,0.0,0.0575932,47.9891,9.342865,504.5719,-9.20411,47.9891
2456,2456,212.0264,4.34772,0.895562,0.0,0,8.574522,0.0,0.0611495,49.6326,9.29994,504.671,-9.20447,49.6326
2457,2457,212.0266,4.72448,0.931416,0.0,0,8.546689,0.0,0.0635539,53.7869,9.25913,504.77,-9.2044,53.7869
2458,2458,212.0268,4.94122,0.938461,0.0,0,8.518857,0.0,0.0643792,56.2243,9.22097,504.765,-9.20403,56.2243
2459,2459,212.027,4.98857,0.960421,0.0,0,8.49103,0.0,0.0659969,56.6683,9.18106,504.759,-9.20387,56.6683
2460,2460,212.0272,5.05556,1.01487,0.0,0,8.46319,0.0,0.0690965,57.1908,9.14168,504.754,-9.20369,57.1908
2461,2461,212.0274,5.09575,1.07364,0.0,0,8.43536,0.0,0.0732543,57.3861,9.10395,504.749,-9.20432,57.3861
2462,2462,212.0276,4.91495,1.13021,0.0,0,8.40753,0.0,0.07781478,55.1093,9.06166,504.743,-9.20448,55.1093
2463,2463,212.0278,4.6894,1.17835,0.0,0,8.3797,0.0,0.0810282,52.3847,9.01683,504.738,-9.204607,52.3847
2464,2464,212.028,4.67312,1.21323,0.0,0,8.35186,0.0,0.0835339,52.0616,8.97232,504.732,-9.20512,52.0616
2465,2465,212.0282,4.80785,1.25863,0.0,0,8.32403,0.0,0.0871933,53.3735,8.92672,504.727,-9.2051,53.3735
2466,2466,212.0284,4.9026,1.31191,0.0,0,8.2962,0.0,0.09081313,54.199,8.8809,504.722,-9.205143,54.199
2467,2467,212.0286,4.86125,1.34555,0.0,0,8.26837,0.0,0.0932757,53.6003,8.84036,504.716,-9.204443,53.6003
2468,2468,212.0288,4.81021,1.37045,0.0,0,8.24054,0.0,0.09560819,52.9337,8.80067,504.711,-9.203867,52.9337
2469,2469,212.029,4.86478,1.40194,0.0,0,8.21271,0.0,0.0977289,53.4014,8.75825,504.706,-9.20384,53.4014
2470,2470,212.0292,4.90568,1.4321,0.0,0,8.18487,0.0,0.0996171,53.7222,8.72256,504.7,-9.20393,53.7222
2471,2471,212.0294,4.81694,1.46464,0.0,0,8.15704,0.0,0.102428,52.6146,8.692091,504.695,-9.20385,52.6146
2472,2472,212.0296,4.67849,1.495679,0.0,0,8.12921,0.0,0.104797,50.9765,8.66116,504.689,-9.203311,50.9765
2473,2473,212.0298,4.68521,1.51505,0.0,0,8.10138,0.0,0.105958,50.971,8.63031,504.684,-9.20391,50.971
2474,2474,212.03,4.86205,1.5364,0.0,0,8.07355,0.0,0.107832,52.8049,8.60359,504.679,-9.20479,52.8049
2475,2475,212.0302,5.04886,1.56914,0.0,0,8.04627,0.0,0.11021,54.6905,8.57796,504.673,-9.20447,54.6905
2476,2476,212.0304,5.13545,1.60344,0.0,0,8.01966,0.0,0.112316,55.4758,8.549448,504.668,-9.20397,55.4758
2477,2477,212.0306,5.10079,1.63694,0.0,0,7.993176,0.0,0.11507,54.9533,8.51844,504.663,-9.20392,54.9533
2478,2478,212.0308,4.99053,1.67127,0.0,0,7.9667,0.0,0.117861,53.6169,8.48818,504.6572,-9.20378,53.6169
2479,2479,212.031,4.91605,1.70377,0.0,0,7.94022,0.0,0.119989,52.6781,8.45834,504.652,-9.20362,52.6781
2480,2480,212.0312,4.91024,1.73611,0.0,0,7.91374,0.0,0.122586,52.4782,8.42581,504.646,-9.20366,52.4782
2481,2481,212.0314,4.91783,1.76958,0.0,0,7.88726,0.0,0.125338,52.4165,8.39458,504.641,-9.20396,52.4165
2482,2482,212.0316,4.92305,1.80004,0.0,0,7.86078,0.0,0.127275,52.3421,8.3623,504.636,-9.20402,52.3421
2483,2483,212.0318,4.92625,1.82246,0.0,0,7.8343,0.0,0.129135,52.2804,8.32973,504.63,-9.203722,52.2804
2484,2484,212.032,4.92834,1.840879,0.0,0,7.80782,0.0,0.130984,52.2238,8.30165,504.625,-9.20422,52.2238
2485,2485,212.0322,4.93353,1.86495,0.0,0,7.78134,0.0,0.132328,52.1759,8.273284,504.6196,-9.20446,52.1759
2486,2486,212.0324,4.91555,1.89106,0.0,0,7.75486,0.0,0.13418,51.8744,8.24759,504.614,-9.20397,51.8744
2487,2487,212.0326,4.86037,1.91478,0.0,0,7.72838,0.0,0.136461,51.1921,8.22205,504.609,-9.20389,51.1921
2488,2488,212.0328,4.81725,1.94016,0.0,0,7.7019,0.0,0.138082,50.6318,8.19717,504.603,-9.20383,50.6318
2489,2489,212.033,4.85682,1.95811,0.0,0,7.675415,0.0,0.1393992,50.9721,8.17816,504.598,-9.20367,50.9721
2490,2490,212.0332,4.954957,1.96765,0.0,0,7.64893,0.0,0.140748,51.9611,8.15597,504.593,-9.203392,51.9611
2491,2491,212.0334,5.03065,1.98766,0.0,0,7.62246,0.0,0.14188,52.6675,8.13128,504.587,-9.20392,52.6675
2492,2492,212.0336,5.03239,2.01317,0.0,0,7.59598,0.0,0.143418,52.5743,8.108429,504.582,-9.20479,52.5743
2493,2493,212.0338,5.000843,2.03359,0.0,0,7.5695,0.0,0.145568,52.1562,8.0878,504.577,-9.20434,52.1562
2494,2494,212.034,5.01784,2.06069,0.0,0,7.543015,0.0,0.147463,52.2155,8.06657,504.571,-9.20394,52.2155
2495,2495,212.0342,5.05606,2.086225,0.0,0,7.51654,0.0,0.149075,52.5012,8.04314,504.566,-9.2039,52.5012
2496,2496,212.0344,5.03235,2.10274,0.0,0,7.49006,0.0,0.150874,52.1829,8.02079,504.56,-9.203516,52.1829
2497,2497,212.0346,4.97751,2.12906,0.0,0,7.46358,0.0,0.152805,51.5005,7.99334,504.555,-9.20271,51.5005
2498,2498,212.0348,4.98019,2.15626,0.0,0,7.4371,0.0,0.15449,51.4107,7.96874,504.55,-9.20257,51.4107
2499,2499,212.035,5.03034,2.1699,0.0,0,7.410615,0.0,0.1561289,51.8688,7.94938,504.544,-9.20258,51.8688
2500,2500,212.0352,5.04998,2.19153,0.0,0,7.38467,0.0,0.157811,51.9766,7.9273,504.539,-9.20226,51.9766
2501,2501,212.0354,4.99276,2.21947,0.0,0,7.35936,0.0,0.159338,51.2665,7.90498,504.534,-9.20227,51.2665
2502,2502,212.0356,4.92194,2.23637,0.0,0,7.33417,0.0,0.161121,50.4672,7.88391,504.528,-9.2029,50.4672
2503,2503,212.0358,4.91286,2.25929,0.0,0,7.30899,0.0,0.163142,50.2764,7.86105,504.523,-9.20409,50.2764
2504,2504,212.036,4.94257,2.28323,0.0,0,7.2838,0.0,0.164547,50.4777,7.83811,504.518,-9.20489,50.4777
2505,2505,212.0362,4.974,2.29111,0.0,0,7.25862,0.0,0.165593,50.7647,7.81835,504.512,-9.2052,50.7647
2506,2506,212.0364,5.01366,2.30844,0.0,0,7.23344,0.0,0.167138,51.094,7.7991,504.507,-9.20447,51.094
2507,2507,212.0366,5.06954,2.33608,0.0,0,7.20825,0.0,0.168609,51.5419,7.78015,504.5014,-9.20389,51.5419
2508,2508,212.0368,5.12078,2.35179,0.0,0,7.18307,0.0,0.170099,51.9929,7.76197,504.421,-9.20318,51.9929
2509,2509,212.037,5.12567,2.37262,0.0,0,7.15788,0.0,0.172159,51.95,7.74155,504.3403,-9.20289,51.95
2510,2510,212.0372,5.08623,2.39984,0.0,0,7.1327,0.0,0.1737282,51.4301,7.72276,504.26,-9.20355,51.4301
2511,2511,212.0374,5.05048,2.41551,0.0,0,7.10752,0.0,0.1750672,50.9998,7.70268,504.1792,-9.20348,50.9998
2512,2512,212.0376,5.059515,2.43678,0.0,0,7.08233,0.0,0.177217,50.9976,7.67914,504.099,-9.20342,50.9976
2513,2513,212.0378,5.09285,2.46433,0.0,0,7.05715,0.0,0.178939,51.2118,7.65761,504.018,-9.20357,51.2118
2514,2514,212.038,5.110424,2.47812,0.0,0,7.03196,0.0,0.1800503,51.3273,7.63653,503.938,-9.2032,51.3273
2515,2515,212.0382,5.12592,2.494704,0.0,0,7.00678,0.0,0.181873,51.4091,7.61782,503.857,-9.20392,51.4091
2516,2516,212.0384,5.14625,2.52032,0.0,0,6.981595,0.0,0.183533,51.4985,7.59912,503.776,-9.20463,51.4985
2517,2517,212.0386,5.15469,2.53904,0.0,0,6.95641,0.0,0.184806,51.4992,7.5779,503.696,-9.20466,51.4992
2518,2518,212.0388,5.13668,2.56053,0.0,0,6.93123,0.0,0.187046,51.2234,7.557,503.6153,-9.20445,51.2234
2519,2519,212.039,5.09995,2.58706,0.0,0,6.90604,0.0,0.189044,50.7396,7.53581,503.535,-9.20369,50.7396
2520,2520,212.0392,5.08425,2.60283,0.0,0,6.88086,0.0,0.190074,50.5138,7.516304,503.454,-9.20296,50.5138
2521,2521,212.0394,5.11794,2.61856,0.0,0,6.85568,0.0,0.191798,50.7786,7.4974,503.374,-9.20292,50.7786
2522,2522,212.0396,5.18068,2.64237,0.0,0,6.830492,0.0,0.193626,51.2939,7.4752,503.293,-9.20233,51.2939
2523,2523,212.0398,5.23286,2.66176,0.0,0,6.80531,0.0,0.194741,51.7225,7.45237,503.213,-9.20159,51.7225
2524,2524,212.04,5.241714,2.6803,0.0,0,6.78012,0.0,0.196607,51.7255,7.43111,503.132,-9.20209,51.7255
2525,2525,212.0402,5.22379,2.703757,0.0,0,6.75544,0.0,0.1986288,51.4422,7.41044,503.051,-9.20225,51.4422
2526,2526,212.0404,5.22066,2.72378,0.0,0,6.73137,0.0,0.199823,51.3205,7.38999,502.971,-9.20298,51.3205
2527,2527,212.0406,5.23342,2.74352,0.0,0,6.7074,0.0,0.20171,51.3563,7.36898,502.89,-9.2042,51.3563
2528,2528,212.0408,5.24214,2.76796,0.0,0,6.68344,0.0,0.203862,51.3305,7.34998,502.81,-9.20448,51.3305
2529,2529,212.041,5.24516,2.79028,0.0,0,6.65948,0.0,0.205186,51.2583,7.328053,502.729,-9.204504,51.2583
2530,2530,212.0412,5.24944,2.80996,0.0,0,6.63552,0.0,0.20704,51.2105,7.30112,502.649,-9.205039,51.2105
2531,2531,212.0414,5.27254,2.831193,0.0,0,6.61156,0.0,0.209153,51.3385,7.27761,502.568,-9.20475,51.3385
2532,2532,212.0416,5.3111,2.85509,0.0,0,6.5876,0.0,0.210593,51.6037,7.25715,502.488,-9.20399,51.6037
2533,2533,212.0418,5.31798,2.87789,0.0,0,6.56364,0.0,0.212546,51.5651,7.23729,502.407,-9.20355,51.5651
2534,2534,212.042,5.29965,2.89991,0.0,0,6.53968,0.0,0.214798,51.286,7.2133,502.326,-9.20307,51.286
2535,2535,212.0422,5.30344,2.92363,0.0,0,6.51572,0.0,0.216288,51.2133,7.19011,502.246,-9.20241,51.2133
2536,2536,212.0424,5.33815,2.94378,0.0,0,6.49176,0.0,0.217938,51.455,7.16742,502.165,-9.202651,51.455
2537,2537,212.0426,5.38162,2.96175,0.0,0,6.467802,0.0,0.21996,51.79,7.14274,502.085,-9.20284,51.79
2538,2538,212.0428,5.41017,2.988209,0.0,0,6.44384,0.0,0.22164,51.9403,7.118907,502.004,-9.203001,51.9403
2539,2539,212.043,5.41688,3.01418,0.0,0,6.41988,0.0,0.223629,51.8824,7.09578,501.924,-9.20382,51.8824
2540,2540,212.0432,5.42315,3.03431,0.0,0,6.39592,0.0,0.225965,51.8476,7.07232,501.843,-9.2039,51.8476
2541,2541,212.0434,5.42969,3.06178,0.0,0,6.37196,0.0,0.227884,51.7804,7.04888,501.763,-9.20386,51.7804
2542,2542,212.0436,5.433147,3.08822,0.0,0,6.348,0.0,0.229819,51.6885,7.02524,501.682,-9.20437,51.6885
2543,2543,212.0438,5.43968,3.10798,0.0,0,6.32404,0.0,0.2321482,51.6572,7.001987,501.601,-9.20418,51.6572
2544,2544,212.044,5.45068,3.1364,0.0,0,6.30008,0.0,0.234219,51.6269,6.97773,501.5209,-9.203927,51.6269
2545,2545,212.0442,5.46589,3.16352,0.0,0,6.27612,0.0,0.236018,51.6421,6.95229,501.44,-9.20378,51.6421
2546,2546,212.0444,5.49155,3.179724,0.0,0,6.252162,0.0,0.2380909,51.8072,6.929112,501.3598,-9.2033,51.8072
2547,2547,212.0446,5.5236,3.20563,0.0,0,6.2282,0.0,0.240181,51.985,6.90522,501.279,-9.20315,51.985
2548,2548,212.0448,5.53982,3.234587,0.0,0,6.20424,0.0,0.242087,51.9982,6.87912,501.199,-9.20319,51.9982
2549,2549,212.045,5.53418,3.25249,0.0,0,6.18028,0.0,0.244218,51.8591,6.85446,501.118,-9.2033,51.8591
2550,2550,212.0452,5.52387,3.2787,0.0,0,6.1568,0.0,0.246395,51.6365,6.83001,501.038,-9.20349,51.6365
2551,2551,212.0454,5.52257,3.30693,0.0,0,6.1339,0.0,0.248142,51.4888,6.80403,500.957,-9.20495,51.4888
2552,2552,212.0456,5.53939,3.32214,0.0,0,6.11111,0.0,0.250025,51.5723,6.78005,500.876,-9.20574,51.5723
2553,2553,212.0458,5.573997,3.34782,0.0,0,6.08832,0.0,0.252389,51.77,6.75827,500.7959,-9.20454,51.77
2554,2554,212.046,5.60754,3.38009,0.0,0,6.065536,0.0,0.254483,51.9241,6.73449,500.715,-9.20374,51.9241
2555,2555,212.0462,5.638032,3.39925,0.0,0,6.042748,0.0,0.256568,52.1125,6.70761,500.6348,-9.2037,52.1125
2556,2556,212.0464,5.65951,3.42598,0.0,0,6.01996,0.0,0.25916,52.1793,6.67966,500.554,-9.20354,52.1793
2557,2557,212.0466,5.66562,3.459,0.0,0,5.99717,0.0,0.261292,52.0728,6.65422,500.474,-9.203474,52.0728
2558,2558,212.0468,5.66744,3.47879,0.0,0,5.97438,0.0,0.263275,51.992,6.63114,500.391,-9.20364,51.992
2559,2559,212.047,5.66813,3.5049,0.0,0,5.9516,0.0,0.26602,51.8696,6.60507,500.309,-9.2034,51.8696
2560,2560,212.0472,5.67142,3.537709,0.0,0,5.92881,0.0,0.26828,51.7377,6.57798,500.227,-9.20311,51.7377
2561,2561,212.0474,5.68094,3.55682,0.0,0,5.90602,0.0,0.270029,51.7301,6.55238,500.1442,-9.20392,51.7301
2562,2562,212.0476,5.69757,3.58126,0.0,0,5.88323,0.0,0.272711,51.7603,6.52552,500.062,-9.20427,51.7603
2563,2563,212.0478,5.71714,3.61364,0.0,0,5.86044,0.0,0.274997,51.777,6.49879,499.979,-9.203805,51.777
2564,2564,212.048,5.74667,3.63397,0.0,0,5.83766,0.0,0.276724,51.9427,6.47512,499.897,-9.20348,51.9427
2565,2565,212.0482,5.77312,3.658056,0.0,0,5.81487,0.0,0.27948,52.0607,6.45168,499.815,-9.20343,52.0607
2566,2566,212.0484,5.7827,3.68943,0.0,0,5.792079,0.0,0.2818028,51.9891,6.4249,499.732,-9.20369,51.9891
2567,2567,212.0486,5.78307,3.71006,0.0,0,5.76929,0.0,0.283434,51.8885,6.39632,499.65,-9.204195,51.8885
2568,2568,212.0488,5.77754,3.73333,0.0,0,5.7465,0.0,0.2860401,51.7218,6.37052,499.5676,-9.2042,51.7218
2569,2569,212.049,5.77747,3.76478,0.0,0,5.72372,0.0,0.2885296,51.563,6.34598,499.485,-9.20416,51.563
2570,2570,212.0492,5.79153,3.78801,0.0,0,5.70093,0.0,0.290289,51.5713,6.31961,499.403,-9.20465,51.5713
2571,2571,212.0494,5.811738,3.81223,0.0,0,5.67814,0.0,0.2930285,51.6287,6.29227,499.3205,-9.20402,51.6287
2572,2572,212.0496,5.82372,3.84334,0.0,0,5.65535,0.0,0.2957525,51.5774,6.26639,499.238,-9.20346,51.5774
2573,2573,212.0498,5.841589,3.86691,0.0,0,5.63256,0.0,0.297413,51.6157,6.24126,499.156,-9.2036,51.6157
2574,2574,212.05,5.85992,3.8904,0.0,0,5.60978,0.0,0.3000173,51.6578,6.21296,499.073,-9.20379,51.6578
2575,2575,212.0502,5.8702,3.92109,0.0,0,5.58744,0.0,0.302778,51.5915,6.18834,498.991,-9.204257,51.5915
2576,2576,212.0504,5.89033,3.94649,0.0,0,5.56566,0.0,0.304466,51.638,6.16597,498.909,-9.20487,51.638
2577,2577,212.0506,5.91087,3.96893,0.0,0,5.54397,0.0,0.306967,51.7026,6.13891,498.826,-9.20447,51.7026
2578,2578,212.0508,5.92374,3.99646,0.0,0,5.52229,0.0,0.309673,51.6731,6.11209,498.7439,-9.20348,51.6731
2579,2579,212.051,5.92509,4.02257,0.0,0,5.50061,0.0,0.3114678,51.5499,6.08667,498.6615,-9.20307,51.5499
2580,2580,212.0512,5.92139,4.04623,0.0,0,5.47893,0.0,0.313917,51.3958,6.06101,498.579,-9.2026,51.3958
2581,2581,212.0514,5.92697,4.07181,0.0,0,5.45725,0.0,0.316584,51.312,6.03427,498.497,-9.20189,51.312
2582,2582,212.0516,5.93458,4.09727,0.0,0,5.43557,0.0,0.31832,51.2462,6.00949,498.4144,-9.20248,51.2462
2583,2583,212.0518,5.95442,4.12079,0.0,0,5.41389,0.0,0.320615,51.2955,5.98411,498.332,-9.20294,51.2955
2584,2584,212.052,5.98645,4.1442,0.0,0,5.39221,0.0,0.323383,51.4493,5.95847,498.25,-9.20301,51.4493
2585,2585,212.0522,6.01274,4.171278,0.0,0,5.37053,0.0,0.325238,51.5333,5.93384,498.167,-9.20359,51.5333
2586,2586,212.0524,6.02578,4.195941,0.0,0,5.34885,0.0,0.327479,51.5155,5.90789,498.0849,-9.20369,51.5155
2587,2587,212.0526,6.03201,4.21785,0.0,0,5.32717,0.0,0.330212,51.4536,5.88162,498.003,-9.2037,51.4536
2588,2588,212.0528,6.03376,4.246038,0.0,0,5.30549,0.0,0.3321735,51.3203,5.8554,497.92,-9.20374,51.3203
2589,2589,212.053,6.02723,4.27166,0.0,0,5.28381,0.0,0.3343538,51.1301,5.831183,497.8378,-9.20374,51.1301
2590,2590,212.0532,6.02565,4.29203,0.0,0,5.26213,0.0,0.337057,51.0096,5.807765,497.755,-9.2034,51.0096
2591,2591,212.0534,6.04202,4.32134,0.0,0,5.24045,0.0,0.339236,50.9938,5.77989,497.673,-9.20365,50.9938
2592,2592,212.0536,6.06487,4.34806,0.0,0,5.21877,0.0,0.341386,51.0453,5.75629,497.591,-9.204,51.0453
2593,2593,212.0538,6.09127,4.36618,0.0,0,5.19709,0.0,0.3440049,51.1712,5.73348,497.5083,-9.20397,51.1712
2594,2594,212.054,6.11781,4.39456,0.0,0,5.17541,0.0,0.346306,51.2428,5.70678,497.426,-9.20421,51.2428
2595,2595,212.0542,6.130229,4.4224,0.0,0,5.15373,0.0,0.348395,51.1979,5.680954,497.344,-9.20401,51.1979
2596,2596,212.0544,6.133142,4.44006,0.0,0,5.13205,0.0,0.350855,51.1278,5.6561,497.2612,-9.20351,51.1278
2597,2597,212.0546,6.13293,4.46724,0.0,0,5.11037,0.0,0.353272,50.9806,5.63228,497.179,-9.20346,50.9806
2598,2598,212.0548,6.12427,4.495317,0.0,0,5.08869,0.0,0.355272,50.7586,5.60911,497.096,-9.20358,50.7586
2599,2599,212.055,6.1236,4.51112,0.0,0,5.06701,0.0,0.357473,50.6686,5.58828,497.014,-9.20303,50.6686
2600,2600,212.0552,6.13551,4.53582,0.0,0,5.04577,0.0,0.359869,50.635,5.56394,496.9317,-9.203,50.635
2601,2601,212.0554,6.15367,4.56463,0.0,0,5.02505,0.0,0.36185,50.6301,5.53864,496.849,-9.20289,50.6301
2602,2602,212.0556,6.17725,4.58001,0.0,0,5.00442,0.0,0.363991,50.7413,5.51431,496.767,-9.20297,50.7413
2603,2603,212.0558,6.19707,4.60342,0.0,0,4.9838,0.0,0.366549,50.7774,5.48935,496.6846,-9.20373,50.7774
2604,2604,212.056,6.202107,4.63339,0.0,0,4.96318,0.0,0.368545,50.6565,5.46705,496.6022,-9.20371,50.6565
2605,2605,212.0562,6.20468,4.64909,0.0,0,4.942564,0.0,0.370524,50.5925,5.44377,496.52,-9.20365,50.5925
2606,2606,212.0564,6.21727,4.67284,0.0,0,4.92194,0.0,0.37317,50.5663,5.4193,496.437,-9.20367,50.5663
2607,2607,212.0566,6.22283,4.7039,0.0,0,4.90132,0.0,0.375323,50.4428,5.3968,496.3551,-9.20361,50.4428
2608,2608,212.0568,6.22333,4.71945,0.0,0,4.8807,0.0,0.377238,50.3624,5.37341,496.242,-9.20335,50.3624
2609,2609,212.057,6.23456,4.74096,0.0,0,4.86008,0.0,0.379887,50.3362,5.34947,496.129,-9.20336,50.3362
2610,2610,212.0572,6.24829,4.770813,0.0,0,4.83946,0.0,0.381997,50.2842,5.32867,496.017,-9.20362,50.2842
2611,2611,212.0574,6.259232,4.7874,0.0,0,4.81884,0.0,0.383775,50.2816,5.30592,495.904,-9.20367,50.2816
2612,2612,212.0576,6.27777,4.81022,0.0,0,4.798224,0.0,0.3865875,50.3054,5.28268,495.791,-9.20367,50.3054
2613,2613,212.0578,6.288826,4.84142,0.0,0,4.7776,0.0,0.388946,50.2227,5.26125,495.678,-9.2031,50.2227
2614,2614,212.058,6.29781,4.85876,0.0,0,4.75698,0.0,0.390735,50.1991,5.23857,495.5654,-9.20233,50.1991
2615,2615,212.0582,6.31522,4.88009,0.0,0,4.73636,0.0,0.393557,50.2202,5.21523,495.453,-9.20228,50.2202
2616,2616,212.0584,6.329432,4.91006,0.0,0,4.715744,0.0,0.395958,50.1676,5.192111,495.34,-9.20227,50.1676
2617,2617,212.0586,6.343493,4.928,0.0,0,4.69512,0.0,0.3975,50.1796,5.17035,495.227,-9.20253,50.1796
2618,2618,212.0588,6.3467,4.94674,0.0,0,4.6745,0.0,0.40011,50.1011,5.14802,495.114,-9.20328,50.1011
2619,2619,212.059,6.3456,4.97351,0.0,0,4.65388,0.0,0.402453,49.944,5.1256,495.001,-9.20364,49.944
2620,2620,212.0592,6.35573,4.99191,0.0,0,4.63326,0.0,0.403851,49.9216,5.10295,494.889,-9.20366,49.9216
2621,2621,212.0594,6.36677,5.01088,0.0,0,4.61264,0.0,0.406455,49.9028,5.07897,494.7757,-9.20419,49.9028
2622,2622,212.0596,6.37105,5.03739,0.0,0,4.59202,0.0,0.408973,49.7889,5.05745,494.6629,-9.20464,49.7889
2623,2623,212.0598,6.3871,5.05662,0.0,0,4.571404,0.0,0.4103018,49.8069,5.03503,494.55,-9.20482,49.8069
2624,2624,212.06,6.41397,5.07434,0.0,0,4.55078,0.0,0.412718,49.9172,5.0131,494.437,-9.20413,49.9172
2625,2625,212.0602,6.42511,5.09995,0.0,0,4.53058,0.0,0.415309,49.86,4.99275,494.324,-9.20337,49.86
2626,2626,212.0604,6.429657,5.121892,0.0,0,4.51087,0.0,0.416866,49.7721,4.97142,494.212,-9.203023,49.7721
2627,2627,212.0606,6.43203,5.14217,0.0,0,4.49125,0.0,0.419433,49.6764,4.95126,494.099,-9.20257,49.6764
2628,2628,212.0608,6.431056,5.16721,0.0,0,4.47163,0.0,0.422216,49.5282,4.93066,493.986,-9.20259,49.5282
2629,2629,212.061,6.436079,5.18976,0.0,0,4.45201,0.0,0.4238306,49.44,4.91008,493.8732,-9.20287,49.44
2630,2630,212.0612,6.44894,5.20969,0.0,0,4.4324,0.0,0.426236,49.4264,4.88762,493.76,-9.2028,49.4264
2631,2631,212.0614,6.45324,5.23162,0.0,0,4.41278,0.0,0.428904,49.3357,4.86409,493.648,-9.20292,49.3357
2632,2632,212.0616,6.45867,5.25374,0.0,0,4.39317,0.0,0.430446,49.2523,4.843,493.535,-9.20408,49.2523
2633,2633,212.0618,6.47736,5.272315,0.0,0,4.37355,0.0,0.432598,49.2897,4.82254,493.422,-9.204752,49.2897
2634,2634,212.062,6.50386,5.29126,0.0,0,4.35393,0.0,0.435199,49.3835,4.80161,493.309,-9.20429,49.3835
2635,2635,212.0622,6.5243,5.31433,0.0,0,4.33432,0.0,0.436832,49.4072,4.78273,493.196,-9.20427,49.4072
2636,2636,212.0624,6.52875,5.33381,0.0,0,4.314702,0.0,0.438778,49.3296,4.76157,493.0835,-9.20422,49.3296
2637,2637,212.0626,6.52986,5.350307,0.0,0,4.29509,0.0,0.441263,49.2439,4.73936,492.9707,-9.203475,49.2439
2638,2638,212.0628,6.5274,5.37338,0.0,0,4.27547,0.0,0.44295,49.0936,4.719624,492.858,-9.20296,49.0936
2639,2639,212.063,6.53373,5.39394,0.0,0,4.25585,0.0,0.444894,49.0237,4.69949,492.745,-9.20239,49.0237
2640,2640,212.0632,6.552413,5.41049,0.0,0,4.23624,0.0,0.447512,49.069,4.67854,492.632,-9.20211,49.069
2641,2641,212.0634,6.56654,5.43532,0.0,0,4.21662,0.0,0.449518,49.0322,4.65951,492.519,-9.2021,49.0322
2642,2642,212.0636,6.58193,5.45824,0.0,0,4.19701,0.0,0.451516,49.0152,4.63774,492.407,-9.20269,49.0152
2643,2643,212.0638,6.59823,5.47362,0.0,0,4.17739,0.0,0.454033,49.0478,4.61441,492.294,-9.20346,49.0478
2644,2644,212.064,6.61291,5.49801,0.0,0,4.15777,0.0,0.456223,49.0158,4.593513,492.181,-9.20361,49.0158
2645,2645,212.0642,6.63279,5.52193,0.0,0,4.13816,0.0,0.458175,49.0244,4.574,492.068,-9.20365,49.0244
2646,2646,212.0644,6.64731,5.53598,0.0,0,4.11854,0.0,0.460558,49.05,4.555366,491.955,-9.20401,49.05
2647,2647,212.0646,6.64977,5.55994,0.0,0,4.09893,0.0,0.46283,48.9287,4.53612,491.843,-9.20403,48.9287
2648,2648,212.0648,6.65359,5.58394,0.0,0,4.07931,0.0,0.464598,48.8171,4.51472,491.73,-9.2037,48.8171
2649,2649,212.065,6.66257,5.59513,0.0,0,4.05969,0.0,0.466719,48.8177,4.49376,491.617,-9.20295,48.8177
2650,2650,212.0652,6.674192,5.61729,0.0,0,4.04047,0.0,0.469062,48.7735,4.47347,491.504,-9.20288,48.7735
2651,2651,212.0654,6.68574,5.64374,0.0,0,4.02173,0.0,0.470959,48.7031,4.45147,491.3913,-9.2035,48.7031
2652,2652,212.0656,6.70137,5.65544,0.0,0,4.00307,0.0,0.473035,48.7483,4.430007,491.278,-9.203577,48.7483
2653,2653,212.0658,6.72541,5.67638,0.0,0,3.98441,0.0,0.475465,48.8,4.4097,491.166,-9.203557,48.8
2654,2654,212.066,6.74212,5.7032,0.0,0,3.96575,0.0,0.477325,48.7629,4.39194,491.053,-9.20285,48.7629
2655,2655,212.0662,6.7555,5.71443,0.0,0,3.9471,0.0,0.479151,48.7933,4.37347,490.94,-9.20213,48.7933
2656,2656,212.0664,6.76565,5.73423,0.0,0,3.92844,0.0,0.481678,48.7493,4.35417,490.827,-9.202075,48.7493
2657,2657,212.0666,6.77139,5.7614,0.0,0,3.90979,0.0,0.483641,48.6296,4.33411,490.714,-9.20202,48.6296
2658,2658,212.0668,6.77354,5.77312,0.0,0,3.89113,0.0,0.485413,48.5756,4.31358,490.613,-9.20214,48.5756
2659,2659,212.067,6.77316,5.79234,0.0,0,3.87247,0.0,0.488157,48.4588,4.29481,490.513,-9.2027,48.4588
2660,2660,212.0672,6.77984,5.81963,0.0,0,3.85382,0.0,0.490171,48.3446,4.274323,490.412,-9.20335,48.3446
2661,2661,212.0674,6.79162,5.83115,0.0,0,3.83516,0.0,0.4916802,48.3601,4.25426,490.311,-9.20364,48.3601
2662,2662,212.0676,6.81167,5.84948,0.0,0,3.81651,0.0,0.494388,48.3935,4.23572,490.21,-9.20311,48.3935
2663,2663,212.0678,6.83628,5.87723,0.0,0,3.79785,0.0,0.496472,48.4022,4.21672,490.109,-9.20213,48.4022
2664,2664,212.068,6.86319,5.89027,0.0,0,3.77919,0.0,0.497981,48.5143,4.19929,490.008,-9.20189,48.5143
2665,2665,212.0682,6.88552,5.90771,0.0,0,3.76054,0.0,0.500765,48.567,4.18203,489.907,-9.20271,48.567
2666,2666,212.0684,6.89255,5.93513,0.0,0,3.74188,0.0,0.503013,48.451,4.16023,489.806,-9.20348,48.451
2667,2667,212.0686,6.88562,5.949544,0.0,0,3.72323,0.0,0.504444,48.3154,4.14064,489.705,-9.2029,48.3154
2668,2668,212.0688,6.88485,5.96549,0.0,0,3.70457,0.0,0.50714,48.2138,4.12166,489.604,-9.20216,48.2138
2669,2669,212.069,6.90261,5.99186,0.0,0,3.68591,0.0,0.50956,48.1787,4.10166,489.503,-9.20215,48.1787
2670,2670,212.0692,6.9235,6.00801,0.0,0,3.66726,0.0,0.510833,48.2265,4.08113,489.402,-9.20287,48.2265
2671,2671,212.0694,6.93753,6.02265,0.0,0,3.6486,0.0,0.513299,48.2353,4.06096,489.301,-9.20363,48.2353
2672,2672,212.0696,6.95374,6.04637,0.0,0,3.62995,0.0,0.515717,48.2034,4.0427,489.2,-9.20361,48.2034
2673,2673,212.0698,6.9765,6.06332,0.0,0,3.61129,0.0,0.516957,48.2576,4.02431,489.099,-9.20358,48.2576
2674,2674,212.07,7.00406,6.0782,0.0,0,3.59263,0.0,0.519459,48.3569,4.00522,488.998,-9.20334,48.3569
2675,2675,212.0702,7.01643,6.10139,0.0,0,3.57435,0.0,0.522093,48.2997,3.98586,488.8974,-9.20268,48.2997
2676,2676,212.0704,7.02066,6.11988,0.0,0,3.55652,0.0,0.52341,48.2151,3.96839,488.796,-9.20245,48.2151
2677,2677,212.0706,7.028605,6.13588,0.0,0,3.538765,0.0,0.525883,48.171,3.95002,488.6955,-9.20238,48.171
2678,2678,212.0708,7.03525,6.15834,0.0,0,3.52102,0.0,0.528641,48.0781,3.93123,488.595,-9.202527,48.0781
2679,2679,212.071,7.04734,6.17871,0.0,0,3.50327,0.0,0.530032,48.0349,3.91094,488.494,-9.20312,48.0349
2680,2680,212.0712,7.06138,6.19538,0.0,0,3.48552,0.0,0.532414,48.0273,3.89052,488.393,-9.20341,48.0273
2681,2681,212.0714,7.0808,6.21635,0.0,0,3.46777,0.0,0.535234,48.0292,3.87331,488.292,-9.20305,48.0292
2682,2682,212.0716,7.10969,6.23758,0.0,0,3.45002,0.0,0.536698,48.0929,3.85657,488.191,-9.20236,48.0929
2683,2683,212.0718,7.13386,6.25474,0.0,0,3.432277,0.0,0.538946,48.149,3.83587,488.09,-9.20286,48.149
2684,2684,212.072,7.14669,6.27347,0.0,0,3.41453,0.0,0.541777,48.1182,3.817241,487.989,-9.20324,48.1182
2685,2685,212.0722,7.15848,6.295188,0.0,0,3.39678,0.0,0.543374,48.0613,3.80135,487.888,-9.20325,48.0613
2686,2686,212.0724,7.166183,6.31253,0.0,0,3.37903,0.0,0.545481,48.004,3.78294,487.787,-9.20362,48.004
2687,2687,212.0726,7.16991,6.32819,0.0,0,3.36128,0.0,0.548163,47.9305,3.76338,487.686,-9.20347,47.9305
2688,2688,212.0728,7.17381,6.35048,0.0,0,3.34354,0.0,0.549783,47.8163,3.74374,487.585,-9.20343,47.8163
2689,2689,212.073,7.18227,6.36827,0.0,0,3.32579,0.0,0.551704,47.7607,3.72455,487.484,-9.20328,47.7607
2690,2690,212.0732,7.20072,6.38109,0.0,0,3.30804,0.0,0.554375,47.8024,3.70617,487.383,-9.20263,47.8024
2691,2691,212.0734,7.22684,6.40341,0.0,0,3.29029,0.0,0.556241,47.8342,3.68752,487.282,-9.20217,47.8342
2692,2692,212.0736,7.25626,6.42308,0.0,0,3.27254,0.0,0.558061,47.9037,3.66973,487.181,-9.2028,47.9037
2693,2693,212.0738,7.28687,6.43592,0.0,0,3.2548,0.0,0.560624,48.0238,3.65137,487.08,-9.20282,48.0238
2694,2694,212.074,7.303988,6.45832,0.0,0,3.23705,0.0,0.562716,47.993,3.63274,486.979,-9.20212,47.993
2695,2695,212.0742,7.30675,6.47808,0.0,0,3.2193,0.0,0.564495,47.8845,3.61322,486.878,-9.20338,47.8845
2696,2696,212.0744,7.307909,6.48927,0.0,0,3.20155,0.0,0.566857,47.8203,3.594732,486.778,-9.20365,47.8203
2697,2697,212.0746,7.32093,6.51317,0.0,0,3.1838,0.0,0.569187,47.752,3.57714,486.677,-9.20314,47.752
2698,2698,212.0748,7.34275,6.53783,0.0,0,3.16606,0.0,0.571177,47.7354,3.55698,486.576,-9.20357,47.7354
2699,2699,212.075,7.3581,6.54987,0.0,0,3.14831,0.0,0.573659,47.7575,3.539149,486.4747,-9.203,47.7575
2700,2700,212.0752,7.38193,6.57182,0.0,0,3.13092,0.0,0.576221,47.7699,3.52226,486.374,-9.202467,47.7699
2701,2701,212.0754,7.41536,6.5965,0.0,0,3.11395,0.0,0.578145,47.8255,3.503706,486.273,-9.20222,47.8255
2702,2702,212.0756,7.4439,6.60659,0.0,0,3.09706,0.0,0.58032,47.9437,3.48447,486.172,-9.20197,47.9437
2703,2703,212.0758,7.46394,6.62608,0.0,0,3.08018,0.0,0.582891,47.9451,3.465126,486.071,-9.20201,47.9451
2704,2704,212.076,7.47478,6.650835,0.0,0,3.06329,0.0,0.584719,47.8523,3.44693,485.97,-9.20178,47.8523
2705,2705,212.0762,7.48514,6.66066,0.0,0,3.04641,0.0,0.586626,47.854,3.42946,485.869,-9.201725,47.854
2706,2706,212.0764,7.50115,6.67971,0.0,0,3.02953,0.0,0.589382,47.8309,3.41137,485.7681,-9.201786,47.8309
2707,2707,212.0766,7.51604,6.70585,0.0,0,3.01264,0.0,0.591411,47.7533,3.39267,485.667,-9.20259,47.7533
2708,2708,212.0768,7.52881,6.71667,0.0,0,2.99576,0.0,0.593332,47.7629,3.3741,485.383,-9.20346,47.7629
2709,2709,212.077,7.549283,6.73503,0.0,0,2.97887,0.0,0.596263,47.7711,3.35407,485.099,-9.20296,47.7711
2710,2710,212.0772,7.56988,6.76175,0.0,0,2.96199,0.0,0.5983,47.7238,3.33442,484.815,-9.20336,47.7238
2711,2711,212.0774,7.589922,6.77242,0.0,0,2.94511,0.0,0.599835,47.7791,3.31807,484.532,-9.20336,47.7791
2712,2712,212.0776,7.61322,6.789413,0.0,0,2.92822,0.0,0.602736,47.812,3.30103,484.248,-9.20289,47.812
2713,2713,212.0778,7.63416,6.816143,0.0,0,2.91134,0.0,0.604968,47.7643,3.28022,483.964,-9.20329,47.7643
2714,2714,212.078,7.65326,6.827971,0.0,0,2.89445,0.0,0.606469,47.8043,3.25958,483.68,-9.20276,47.8043
2715,2715,212.0782,7.67407,6.84522,0.0,0,2.87757,0.0,0.609544,47.818,3.24196,483.396,-9.20238,47.818
2716,2716,212.0784,7.69251,6.87209,0.0,0,2.86069,0.0,0.612076,47.7513,3.225034,483.112,-9.202342,47.7513
2717,2717,212.0786,7.70601,6.88498,0.0,0,2.8438,0.0,0.613494,47.7478,3.20833,482.828,-9.20203,47.7478
2718,2718,212.0788,7.72196,6.901041,0.0,0,2.82692,0.0,0.616428,47.7377,3.191299,482.5444,-9.20177,47.7377
2719,2719,212.079,7.73747,6.92804,0.0,0,2.810034,0.0,0.619104,47.65,3.17176,482.261,-9.20236,47.65
2720,2720,212.0792,7.752346,6.94312,0.0,0,2.79315,0.0,0.620464,47.6389,3.15372,481.977,-9.20334,47.6389
2721,2721,212.0794,7.77336,6.95748,0.0,0,2.77627,0.0,0.623274,47.67,3.13607,481.693,-9.20305,47.67
2722,2722,212.0796,7.796886,6.98151,0.0,0,2.75938,0.0,0.625969,47.6495,3.11765,481.409,-9.202632,47.6495
2723,2723,212.0798,7.8283,6.997488,0.0,0,2.7425,0.0,0.627151,47.7316,3.10024,481.125,-9.20309,47.7316
2724,2724,212.08,7.85537,7.01202,0.0,0,2.72561,0.0,0.62991,47.7963,3.08217,480.841,-9.20288,47.7963
2725,2725,212.0802,7.86725,7.03389,0.0,0,2.70907,0.0,0.6327619,47.7173,3.06293,480.557,-9.202,47.7173
2726,2726,212.0804,7.87519,7.05014,0.0,0,2.69293,0.0,0.633898,47.6531,3.04552,480.273,-9.20136,47.6531
2727,2727,212.0806,7.88375,7.06403,0.0,0,2.67687,0.0,0.636456,47.6086,3.02838,479.989,-9.2015,47.6086
2728,2728,212.0808,7.90074,7.08508,0.0,0,2.66081,0.0,0.639413,47.565,3.01151,479.706,-9.20143,47.565
2729,2729,212.081,7.9195,7.103622,0.0,0,2.64475,0.0,0.640758,47.5488,2.99391,479.422,-9.20159,47.5488
2730,2730,212.0812,7.94,7.11895,0.0,0,2.62869,0.0,0.643301,47.5648,2.97346,479.138,-9.2029,47.5648
2731,2731,212.0814,7.96239,7.13878,0.0,0,2.61263,0.0,0.646345,47.5601,2.95543,478.854,-9.203413,47.5601
2732,2732,212.0816,7.98525,7.15869,0.0,0,2.59657,0.0,0.647764,47.5569,2.93661,478.57,-9.20345,47.5569
2733,2733,212.0818,8.010107,7.17437,0.0,0,2.58051,0.0,0.650115,47.5944,2.91786,478.286,-9.20359,47.5944
2734,2734,212.082,8.03431,7.19229,0.0,0,2.56445,0.0,0.653156,47.6116,2.902,478.002,-9.2029,47.6116
2735,2735,212.0822,8.04844,7.21406,0.0,0,2.54839,0.0,0.654826,47.5413,2.88504,477.718,-9.20238,47.5413
2736,2736,212.0824,8.058794,7.23008,0.0,0,2.53233,0.0,0.657086,47.4889,2.86735,477.435,-9.20219,47.4889
2737,2737,212.0826,8.07566,7.24517,0.0,0,2.51627,0.0,0.6600886,47.4811,2.84949,477.1506,-9.20147,47.4811
2738,2738,212.0828,8.09092,7.26775,0.0,0,2.50021,0.0,0.661934,47.4101,2.83034,476.867,-9.20126,47.4101
2739,2739,212.083,8.10899,7.28563,0.0,0,2.48415,0.0,0.664044,47.3884,2.81506,476.583,-9.2016,47.3884
2740,2740,212.0832,8.12997,7.29872,0.0,0,2.46809,0.0,0.666912,47.4174,2.79849,476.299,-9.20196,47.4174
2741,2741,212.0834,8.16086,7.32075,0.0,0,2.45203,0.0,0.668814,47.4394,2.77862,476.015,-9.20275,47.4394
2742,2742,212.0836,8.19033,7.33868,0.0,0,2.43597,0.0,0.6707648,47.4815,2.76027,475.7312,-9.20348,47.4815
2743,2743,212.0838,8.21394,7.34873,0.0,0,2.41991,0.0,0.67349,47.5458,2.74277,475.4473,-9.20356,47.5458
2744,2744,212.084,8.24444,7.37005,0.0,0,2.40385,0.0,0.675538,47.5676,2.72499,475.163,-9.20361,47.5676
2745,2745,212.0842,8.263526,7.38846,0.0,0,2.38779,0.0,0.677204,47.5438,2.70678,474.88,-9.20335,47.5438
2746,2746,212.0844,8.26943,7.396513,0.0,0,2.37173,0.0,0.679672,47.5193,2.69006,474.596,-9.20279,47.5193
2747,2747,212.0846,8.27789,7.41816,0.0,0,2.35567,0.0,0.682033,47.4101,2.67492,474.312,-9.20252,47.4101
2748,2748,212.0848,8.29508,7.44106,0.0,0,2.33961,0.0,0.6839875,47.3414,2.65627,474.028,-9.20182,47.3414
2749,2749,212.085,8.31591,7.45122,0.0,0,2.32355,0.0,0.686647,47.3859,2.63662,473.744,-9.20159,47.3859
2750,2750,212.0852,8.33773,7.47352,0.0,0,2.30781,0.0,0.6894322,47.3466,2.61944,473.46,-9.20153,47.3466
2751,2751,212.0854,8.36654,7.49869,0.0,0,2.29246,0.0,0.691562,47.3248,2.60116,473.176,-9.200839,47.3248
2752,2752,212.0856,8.39628,7.50796,0.0,0,2.27718,0.0,0.693983,47.4245,2.58539,472.892,-9.20139,47.4245
2753,2753,212.0858,8.42683,7.52705,0.0,0,2.2619,0.0,0.696676,47.4554,2.57069,472.608,-9.20194,47.4554
2754,2754,212.086,8.45483,7.55069,0.0,0,2.246628,0.0,0.698608,47.4372,2.55421,472.325,-9.202467,47.4372
2755,2755,212.0862,8.46637,7.55927,0.0,0,2.23135,0.0,0.7008127,47.438,2.53782,472.041,-9.20309,47.438
2756,2756,212.0864,8.47299,7.5776,0.0,0,2.21608,0.0,0.703689,47.3383,2.51988,471.757,-9.2033,47.3383
2757,2757,212.0866,8.48378,7.60171,0.0,0,2.2008,0.0,0.705504,47.2185,2.50196,471.473,-9.20304,47.2185
2758,2758,212.0868,8.49979,7.60958,0.0,0,2.18552,0.0,0.70731,47.2486,2.48431,471.1655,-9.20231,47.2486
2759,2759,212.087,8.525156,7.625113,0.0,0,2.17025,0.0,0.710223,47.273,2.46741,470.858,-9.20239,47.273
2760,2760,212.0872,8.55773,7.6483,0.0,0,2.15497,0.0,0.712015,47.2789,2.45093,470.551,-9.20245,47.2789
2761,2761,212.0874,8.58874,7.656219,0.0,0,2.1397,0.0,0.713509,47.3903,2.43565,470.243,-9.202033,47.3903
2762,2762,212.0876,8.6194,7.67098,0.0,0,2.12442,0.0,0.7165212,47.4474,2.41978,469.936,-9.20247,47.4474
2763,2763,212.0878,8.64838,7.69595,0.0,0,2.10914,0.0,0.718615,47.4167,2.40154,469.628,-9.2029,47.4167
2764,2764,212.088,8.67174,7.70584,0.0,0,2.09387,0.0,0.720036,47.4692,2.3858,469.321,-9.20212,47.4692
2765,2765,212.0882,8.68044,7.72048,0.0,0,2.07859,0.0,0.72316,47.4049,2.3693,469.013,-9.20153,47.4049
2766,2766,212.0884,8.6837,7.7465,0.0,0,2.06332,0.0,0.725628,47.2237,2.35221,468.706,-9.20164,47.2237
2767,2767,212.0886,8.69507,7.75779,0.0,0,2.04804,0.0,0.727104,47.1989,2.33651,468.399,-9.20199,47.1989
2768,2768,212.0888,8.71344,7.77133,0.0,0,2.03276,0.0,0.73023,47.1948,2.31915,468.091,-9.20283,47.1948
2769,2769,212.089,8.74816,7.79615,0.0,0,2.01749,0.0,0.732886,47.1915,2.30483,467.784,-9.20283,47.1915
2770,2770,212.0892,8.78567,7.80917,0.0,0,2.00221,0.0,0.734172,47.2931,2.28852,467.476,-9.20216,47.2931
2771,2771,212.0894,8.81613,7.821712,0.0,0,1.98694,0.0,0.737085,47.3596,2.2705,467.169,-9.20212,47.3596
2772,2772,212.0896,8.84388,7.84417,0.0,0,1.97166,0.0,0.739795,47.3337,2.255698,466.861,-9.20209,47.3337
2773,2773,212.0898,8.86502,7.85768,0.0,0,1.95638,0.0,0.740895,47.3412,2.23948,466.554,-9.2015,47.3412
2774,2774,212.09,8.87989,7.86896,0.0,0,1.94111,0.0,0.743638,47.3324,2.22358,466.247,-9.20072,47.3324
2775,2775,212.0902,8.88972,7.88956,0.0,0,1.92614,0.0,0.746479,47.2234,2.206459,465.939,-9.200676,47.2234
2776,2776,212.0904,8.90152,7.90487,0.0,0,1.91154,0.0,0.747547,47.1659,2.1889,465.632,-9.20083,47.1659
2777,2777,212.0906,8.92417,7.91625,0.0,0,1.897,0.0,0.750147,47.1964,2.173728,465.324,-9.20113,47.1964
2778,2778,212.0908,8.94892,7.93426,0.0,0,1.88247,0.0,0.75306,47.1852,2.1597,465.017,-9.20243,47.1852
2779,2779,212.091,8.969924,7.9495,0.0,0,1.86794,0.0,0.754046,47.1754,2.14471,464.709,-9.20295,47.1754
2780,2780,212.0912,9.00146,7.961133,0.0,0,1.8534,0.0,0.756345,47.249,2.12898,464.402,-9.20231,47.249
2781,2781,212.0914,9.03862,7.97826,0.0,0,1.83887,0.0,0.759362,47.3076,2.11213,464.095,-9.20219,47.3076
2782,2782,212.0916,9.07346,7.99656,0.0,0,1.82434,0.0,0.76072,47.3435,2.096065,463.787,-9.20241,47.3435
2783,2783,212.0918,9.1011,8.01158,0.0,0,1.80981,0.0,0.76315,47.3672,2.08185,463.48,-9.20183,47.3672
2784,2784,212.092,9.11817,8.02793,0.0,0,1.79528,0.0,0.766431,47.3247,2.06684,463.172,-9.20171,47.3247
2785,2785,212.0922,9.13197,8.04702,0.0,0,1.78074,0.0,0.76801,47.2425,2.05139,462.865,-9.20224,47.2425
2786,2786,212.0924,9.14152,8.060957,0.0,0,1.76621,0.0,0.770203,47.1796,2.035367,462.557,-9.20155,47.1796
2787,2787,212.0926,9.16035,8.07375,0.0,0,1.75168,0.0,0.773217,47.1734,2.01975,462.25,-9.20083,47.1734
2788,2788,212.0928,9.18701,8.09337,0.0,0,1.73715,0.0,0.774787,47.1518,2.00498,461.942,-9.2009,47.1518
2789,2789,212.093,9.21885,8.10835,0.0,0,1.72262,0.0,0.776846,47.1934,1.98961,461.635,-9.20104,47.1934
2790,2790,212.0932,9.25108,8.11932,0.0,0,1.70808,0.0,0.7798332,47.2689,1.97527,461.328,-9.20097,47.2689
2791,2791,212.0934,9.28481,8.13873,0.0,0,1.69355,0.0,0.781592,47.2822,1.95954,461.0202,-9.20165,47.2822
2792,2792,212.0936,9.32225,8.15379,0.0,0,1.67902,0.0,0.783313,47.349,1.94531,460.713,-9.201684,47.349
2793,2793,212.0938,9.34146,8.16288,0.0,0,1.66449,0.0,0.786068,47.3717,1.9312,460.405,-9.20101,47.3717
2794,2794,212.094,9.34941,8.18382,0.0,0,1.64996,0.0,0.788134,47.2394,1.91451,460.0979,-9.20125,47.2394
2795,2795,212.0942,9.36456,8.202035,0.0,0,1.63542,0.0,0.790061,47.1654,1.89751,459.79,-9.20109,47.1654
2796,2796,212.0944,9.38025,8.21004,0.0,0,1.62089,0.0,0.79293,47.1782,1.88141,459.483,-9.20093,47.1782
2797,2797,212.0946,9.40138,8.22964,0.0,0,1.60636,0.0,0.79534,47.1219,1.8677,459.1756,-9.20163,47.1219
2798,2798,212.0948,9.4305,8.24869,0.0,0,1.59183,0.0,0.797025,47.1093,1.85402,458.868,-9.20157,47.1093
2799,2799,212.095,9.46276,8.25522,0.0,0,1.5773,0.0,0.799424,47.216,1.839437,458.561,-9.20128,47.216
2800,2800,212.0952,9.49354,8.27329,0.0,0,1.56305,0.0,0.801917,47.2182,1.82549,458.2533,-9.20178,47.2182
2801,2801,212.0954,9.52158,8.29396,0.0,0,1.54916,0.0,0.803577,47.184,1.81013,457.946,-9.20177,47.184
2802,2802,212.0956,9.546463,8.3003,0.0,0,1.53534,0.0,0.805804,47.2539,1.79478,457.638,-9.201416,47.2539
2803,2803,212.0958,9.56958,8.3177,0.0,0,1.52151,0.0,0.8085463,47.2214,1.77877,457.331,-9.20153,47.2214
2804,2804,212.096,9.58785,8.33986,0.0,0,1.50769,0.0,0.810357,47.1241,1.762722,457.024,-9.20171,47.1241
2805,2805,212.0962,9.60806,8.34586,0.0,0,1.49387,0.0,0.812443,47.1724,1.74807,456.716,-9.2012,47.1724
2806,2806,212.0964,9.63192,8.36207,0.0,0,1.48004,0.0,0.815456,47.1518,1.73159,456.409,-9.20067,47.1518
2807,2807,212.0966,9.66097,8.38488,0.0,0,1.46622,0.0,0.817372,47.0995,1.71587,456.101,-9.20066,47.0995
2808,2808,212.0968,9.69375,8.39023,0.0,0,1.45239,0.0,0.819078,47.2135,1.70225,456.08,-9.20106,47.2135
2809,2809,212.097,9.71952,8.40488,0.0,0,1.43857,0.0,0.822111,47.2134,1.68926,456.0582,-9.20176,47.2134
2810,2810,212.0972,9.75196,8.42863,0.0,0,1.42475,0.0,0.824113,47.1665,1.67585,456.037,-9.20181,47.1665
2811,2811,212.0974,9.79412,8.43496,0.0,0,1.41092,0.0,0.825629,47.3157,1.66001,456.015,-9.20235,47.3157
2812,2812,212.0976,9.83064,8.44806,0.0,0,1.3971,0.0,0.828746,47.3784,1.6456,455.994,-9.2021,47.3784
2813,2813,212.0978,9.85375,8.47171,0.0,0,1.38327,0.0,0.8308481,47.2841,1.63159,455.972,-9.20128,47.2841
2814,2814,212.098,9.869791,8.47911,0.0,0,1.36945,0.0,0.832138,47.2966,1.6141,455.951,-9.20109,47.2966
2815,2815,212.0982,9.89471,8.4908,0.0,0,1.35563,0.0,0.835224,47.3139,1.599237,455.929,-9.2012,47.3139
2816,2816,212.0984,9.92468,8.51397,0.0,0,1.3418,0.0,0.837512,47.2541,1.58495,455.9075,-9.20163,47.2541
2817,2817,212.0986,9.94862,8.522706,0.0,0,1.32798,0.0,0.838719,47.2914,1.57243,455.886,-9.20179,47.2914
2818,2818,212.0988,9.97809,8.53426,0.0,0,1.31415,0.0,0.8418954,47.3297,1.55911,455.864,-9.201251,47.3297
2819,2819,212.099,10.0057,8.557023,0.0,0,1.30033,0.0,0.844343,47.2595,1.54506,455.8429,-9.20119,47.2595
2820,2820,212.0992,10.0367,8.56671,0.0,0,1.28651,0.0,0.845356,47.32,1.53336,455.821,-9.20115,47.32
2821,2821,212.0994,10.0768,8.57701,0.0,0,1.27268,0.0,0.848511,47.4176,1.51771,455.8,-9.20047,47.4176
2822,2822,212.0996,10.11253,8.59908,0.0,0,1.25886,0.0,0.851352,47.3885,1.50136,455.778,-9.20075,47.3885
2823,2823,212.0998,10.1332,8.6122,0.0,0,1.24503,0.0,0.852314,47.3681,1.486766,455.757,-9.20081,47.3681
2824,2824,212.1,10.1503,8.62291,0.0,0,1.23121,0.0,0.855386,47.3519,1.47368,455.735,-9.20122,47.3519
2825,2825,212.1002,10.1725,8.6426,0.0,0,1.21766,0.0,0.858435,47.2788,1.45864,455.714,-9.20126,47.2788
2826,2826,212.1004,10.2014,8.65593,0.0,0,1.20445,0.0,0.859277,47.2928,1.44403,455.6922,-9.2007,47.2928
2827,2827,212.1006,10.2351,8.66525,0.0,0,1.1913,0.0,0.861957,47.3648,1.43249,455.671,-9.20055,47.3648
2828,2828,212.1008,10.2728,8.6832,0.0,0,1.17815,0.0,0.865044,47.3766,1.41968,455.649,-9.2005,47.3766
2829,2829,212.101,10.3083,8.69747,0.0,0,1.165,0.0,0.865893,47.4104,1.40414,455.628,-9.2007,47.4104
2830,2830,212.1012,10.3411,8.706337,0.0,0,1.15186,0.0,0.868214,47.4801,1.3893,455.606,-9.20085,47.4801
2831,2831,212.1014,10.3799,8.72177,0.0,0,1.13871,0.0,0.8712858,47.5169,1.37596,455.585,-9.2009,47.5169
2832,2832,212.1016,10.4141,8.73709,0.0,0,1.12556,0.0,0.87232,47.5323,1.36165,455.563,-9.20068,47.5323
2833,2833,212.1018,10.4472,8.74775,0.0,0,1.11241,0.0,0.874646,47.5851,1.34724,455.5415,-9.20091,47.5851
2834,2834,212.102,10.477,8.762167,0.0,0,1.09926,0.0,0.877919,47.5873,1.33114,455.52,-9.201005,47.5873
2835,2835,212.1022,10.5014,8.77973,0.0,0,1.08612,0.0,0.879235,47.5354,1.31648,455.498,-9.20133,47.5354
2836,2836,212.1024,10.5224,8.79161,0.0,0,1.07297,0.0,0.881477,47.5197,1.302103,455.4769,-9.2019,47.5197
2837,2837,212.1026,10.5516,8.80384,0.0,0,1.05982,0.0,0.884775,47.5376,1.28716,455.455,-9.20119,47.5376
2838,2838,212.1028,10.5876,8.82254,0.0,0,1.04667,0.0,0.886127,47.525,1.27292,455.434,-9.200634,47.525
2839,2839,212.103,10.6214,8.83629,0.0,0,1.03352,0.0,0.888151,47.5475,1.258554,455.412,-9.19997,47.5475
2840,2840,212.1032,10.6625,8.84646,0.0,0,1.02038,0.0,0.891496,47.6357,1.24342,455.391,-9.199482,47.6357
2841,2841,212.1034,10.7071,8.86457,0.0,0,1.00723,0.0,0.893393,47.6636,1.23092,455.369,-9.199913,47.6636
2842,2842,212.1036,10.7433,8.8789,0.0,0,0.99408,0.0,0.89519,47.6887,1.21852,455.348,-9.20001,47.6887
2843,2843,212.1038,10.7678,8.88697,0.0,0,0.980932,0.0,0.8981002,47.7209,1.20547,455.3262,-9.20017,47.7209
2844,2844,212.104,10.7923,8.90542,0.0,0,0.967784,0.0,0.900228,47.6533,1.19179,455.305,-9.20057,47.6533
2845,2845,212.1042,10.8202,8.92057,0.0,0,0.954636,0.0,0.9019863,47.6316,1.17755,455.283,-9.20113,47.6316
2846,2846,212.1044,10.8479,8.92613,0.0,0,0.941488,0.0,0.904744,47.7002,1.16411,455.2616,-9.20239,47.7002
2847,2847,212.1046,10.8844,8.94412,0.0,0,0.92834,0.0,0.906816,47.6879,1.14811,455.24,-9.20264,47.6879
2848,2848,212.1048,10.9204,8.96125,0.0,0,0.915192,0.0,0.9082728,47.6803,1.134179,455.219,-9.20219,47.6803
2849,2849,212.105,10.9556,8.96575,0.0,0,0.902044,0.0,0.910793,47.7904,1.1214,455.197,-9.20197,47.7904
2850,2850,212.1052,11.005,8.98276,0.0,0,0.889161,0.0,0.9132871,47.8406,1.10636,455.175,-9.20114,47.8406
2851,2851,212.1054,11.04747,9.0023,0.0,0,0.876596,0.0,0.914978,47.8343,1.0929,455.154,-9.20051,47.8343
2852,2852,212.1056,11.0829,9.00721,0.0,0,0.864089,0.0,0.917407,47.9397,1.082755,455.132,-9.19975,47.9397
2853,2853,212.1058,11.10878,9.02366,0.0,0,0.851585,0.0,0.920228,47.89,1.06855,455.1109,-9.199357,47.89
2854,2854,212.106,11.1242,9.04497,0.0,0,0.839081,0.0,0.921954,47.747,1.051949,455.089,-9.20009,47.747
2855,2855,212.1062,11.1537,9.04968,0.0,0,0.826577,0.0,0.924165,47.8271,1.0396,455.068,-9.20121,47.8271
2856,2856,212.1064,11.1874,9.06479,0.0,0,0.814073,0.0,0.927385,47.8223,1.02735,455.0463,-9.20192,47.8223
2857,2857,212.1066,11.2185,9.08647,0.0,0,0.8015694,0.0,0.929158,47.74,1.01339,455.025,-9.20197,47.74
2858,2858,212.1068,11.2608,9.09016,0.0,0,0.789065,0.0,0.930831,47.8837,1.00051,455.006,-9.20148,47.8837
2859,2859,212.107,11.3089,9.10349,0.0,0,0.776561,0.0,0.934104,47.9547,0.98796,454.986,-9.20036,47.9547
2860,2860,212.1072,11.3593,9.12594,0.0,0,0.7640574,0.0,0.936111,47.9431,0.972702,454.967,-9.200058,47.9431
2861,2861,212.1074,11.4111,9.13044,0.0,0,0.751553,0.0,0.937558,48.1163,0.957817,454.948,-9.19968,48.1163
2862,2862,212.1076,11.446,9.14194,0.0,0,0.739049,0.0,0.94074,48.1472,0.94387,454.929,-9.19916,48.1472
2863,2863,212.1078,11.4682,9.163991,0.0,0,0.726545,0.0,0.942673,48.0169,0.931109,454.91,-9.19914,48.0169
2864,2864,212.108,11.4924,9.16968,0.0,0,0.714041,0.0,0.943959,48.0606,0.917781,454.891,-9.19967,48.0606
2865,2865,212.1082,11.5175,9.18059,0.0,0,0.701537,0.0,0.94746,48.0541,0.905325,454.871,-9.19998,48.0541
2866,2866,212.1084,11.55458,9.20372,0.0,0,0.689033,0.0,0.949855,47.9728,0.8946318,454.852,-9.20059,47.9728
2867,2867,212.1086,11.595,9.211256,0.0,0,0.676529,0.0,0.950975,48.0632,0.881736,454.833,-9.20125,48.0632
2868,2868,212.1088,11.63026,9.22048,0.0,0,0.664025,0.0,0.954278,48.1146,0.868744,454.814,-9.20093,48.1146
2869,2869,212.109,11.6765,9.24104,0.0,0,0.651521,0.0,0.956745,48.0938,0.8554036,454.795,-9.20078,48.0938
2870,2870,212.1092,11.72602,9.249548,0.0,0,0.639017,0.0,0.95754,48.2095,0.841765,454.776,-9.20059,48.2095
2871,2871,212.1094,11.7707,9.258585,0.0,0,0.626513,0.0,0.960737,48.2991,0.828599,454.7565,-9.20049,48.2991
2872,2872,212.1096,11.8059,9.2791,0.0,0,0.614009,0.0,0.963656,48.2296,0.815451,454.737,-9.19974,48.2296
2873,2873,212.1098,11.83721,9.29033,0.0,0,0.6015054,0.0,0.964505,48.2398,0.800849,454.718,-9.19901,48.2398
2874,2874,212.11,11.8706,9.29901,0.0,0,0.589001,0.0,0.967678,48.2849,0.786625,454.699,-9.19882,48.2849
2875,2875,212.1102,11.9069,9.31862,0.0,0,0.576745,0.0,0.970976,48.2261,0.773466,454.68,-9.19943,48.2261
2876,2876,212.1104,11.9534,9.3317,0.0,0,0.564788,0.0,0.971733,48.2761,0.759737,454.661,-9.200201,48.2761
2877,2877,212.1106,12.0008,9.34008,0.0,0,0.552886,0.0,0.974553,48.3785,0.747133,454.642,-9.20036,48.3785
2878,2878,212.1108,12.04736,9.35617,0.0,0,0.540986,0.0,0.9777711,48.395,0.734611,454.622,-9.200098,48.395
2879,2879,212.111,12.1016,9.368331,0.0,0,0.529086,0.0,0.978444,48.4828,0.721073,454.603,-9.20009,48.4828
2880,2880,212.1112,12.1549,9.3768,0.0,0,0.517186,0.0,0.980953,48.6054,0.709006,454.584,-9.20059,48.6054
2881,2881,212.1114,12.1974,9.392292,0.0,0,0.505286,0.0,0.984246,48.6083,0.696391,454.565,-9.20019,48.6083
2882,2882,212.1116,12.2286,9.406827,0.0,0,0.493386,0.0,0.985127,48.5752,0.6822688,454.546,-9.19991,48.5752
2883,2883,212.1118,12.2542,9.41618,0.0,0,0.4814859,0.0,0.987623,48.5757,0.668437,454.527,-9.19961,48.5757
2884,2884,212.112,12.2784,9.43033,0.0,0,0.4695859,0.0,0.991303,48.5178,0.6548332,454.507,-9.19979,48.5178
2885,2885,212.1122,12.3064,9.44675,0.0,0,0.457686,0.0,0.992604,48.45,0.642467,454.488,-9.20002,48.45
2886,2886,212.1124,12.3485,9.45728,0.0,0,0.445786,0.0,0.9947868,48.5007,0.629882,454.469,-9.19971,48.5007
2887,2887,212.1126,12.4008,9.46852,0.0,0,0.4338859,0.0,0.998167,48.583,0.617063,454.45,-9.199441,48.583
2888,2888,212.1128,12.4456,9.48526,0.0,0,0.421986,0.0,0.999522,48.574,0.603968,454.431,-9.19901,48.574
2889,2889,212.113,12.4923,9.49559,0.0,0,0.410086,0.0,1.0014,48.6425,0.590824,454.412,-9.19898,48.6425
2890,2890,212.1132,12.5404,9.50295,0.0,0,0.398186,0.0,1.00461,48.7479,0.580393,454.392,-9.19897,48.7479