File: examples/hot axisymmetric compression example/data/04 corrected data/testID_0141.csv
level_0,index,Time(sec),Force(kN),Jaw(mm),PowAngle(deg),Power(W),Pram,PTemp,Strain,Stress(MPa),Stroke(mm),TC1(C),wedge(mm),uncorrected stress
1972,1972,165.3446,0.173734,0.0417673,0.0,0,9.06297,0.0,0.0025009,2.11164,10.0817,359.453,-9.28931,2.11164
1973,1973,165.3448,1.0482,0.0479179,0.0,0,9.03371,0.0,0.0029514,12.7348,10.0406,359.545,-9.289484,12.7348
1974,1974,165.345,3.0218,0.07847099,0.0,0,9.00444,0.0,0.00500251,36.6325,10.0055,359.637,-9.28935,36.6325
1975,1975,165.3452,4.91339,0.122725,0.0,0,8.97518,0.0,0.007494811,59.3757,9.978694,359.73,-9.28866,59.3757
1976,1976,165.3454,5.92214,0.144503,0.0,0,8.94591,0.0,0.00928607,71.4544,9.95294,359.822,-9.28787,71.4544
1977,1977,165.3456,6.269731,0.164872,0.0,0,8.91665,0.0,0.0109864,75.5379,9.91672,359.914,-9.28702,75.5379
1978,1978,165.3458,6.506928,0.209085,0.0,0,8.88739,0.0,0.0132618,78.1469,9.87442,360.007,-9.28542,78.1469
1979,1979,165.346,6.81801,0.275169,0.0,0,8.85812,0.0,0.0173535,81.4932,9.830699,360.099,-9.28359,81.4932
1980,1980,165.3462,6.90482,0.354457,0.0,0,8.82886,0.0,0.0230888,82.0572,9.78633,360.191,-9.28337,82.0572
1981,1981,165.3464,6.83732,0.410662,0.0,0,8.79959,0.0,0.0271139,80.9226,9.74037,360.284,-9.283741,80.9226
1982,1982,165.3466,7.11789,0.42837,0.0,0,8.77033,0.0,0.0285843,84.1343,9.68841,360.376,-9.28455,84.1343
1983,1983,165.3468,7.57032,0.455839,0.0,0,8.74165,0.0,0.0305809,89.3021,9.63727,360.468,-9.28569,89.3021
1984,1984,165.347,7.73197,0.515538,0.0,0,8.71369,0.0,0.0341185,90.8096,9.59137,360.561,-9.28531,90.8096
1985,1985,165.3472,7.85461,0.570612,0.0,0,8.68585,0.0,0.0378459,91.8756,9.54719,360.653,-9.28482,91.8756
1986,1986,165.3474,8.20037,0.597241,0.0,0,8.65802,0.0,0.04054711,95.7311,9.50861,360.745,-9.28425,95.7311
1987,1987,165.3476,8.35806,0.601379,0.0,0,8.63019,0.0,0.0410611,97.5419,9.46738,360.8378,-9.283061,97.5419
1988,1988,165.3478,8.04972,0.607797,0.0,0,8.60235,0.0,0.04097141,93.8989,9.42904,360.93,-9.28223,93.8989
1989,1989,165.348,7.65715,0.646989,0.0,0,8.57452,0.0,0.043513,89.0598,9.3987,361.022,-9.28234,89.0598
1990,1990,165.3482,7.72807,0.706705,0.0,0,8.546689,0.0,0.0476171,89.4853,9.36831,361.115,-9.28339,89.4853
1991,1991,165.3484,8.18202,0.745106,0.0,0,8.518857,0.0,0.0503455,94.4697,9.33897,361.207,-9.28435,94.4697
1992,1992,165.3486,8.47734,0.7594291,0.0,0,8.491025,0.0,0.0518619,97.7744,9.30445,361.2995,-9.28379,97.7744
1993,1993,165.3488,8.51067,0.778534,0.0,0,8.46319,0.0,0.0531879,98.0181,9.26597,361.392,-9.2827,98.0181
1994,1994,165.349,8.57724,0.819774,0.0,0,8.43536,0.0,0.05534387,98.4786,9.22729,361.484,-9.2819,98.4786
1995,1995,165.3492,8.70415,0.876541,0.0,0,8.40753,0.0,0.0593264,99.5079,9.191185,361.577,-9.28201,99.5079
1996,1996,165.3494,8.60763,0.928264,0.0,0,8.3797,0.0,0.0634712,98.0191,9.15302,361.669,-9.28205,98.0191
1997,1997,165.3496,8.32402,0.96753,0.0,0,8.35186,0.0,0.06609416,94.5064,9.110837,361.7612,-9.28232,94.5064
1998,1998,165.3498,8.24151,1.00181,0.0,0,8.32403,0.0,0.0685276,93.3249,9.07158,361.854,-9.28303,93.3249
1999,1999,165.35,8.47967,1.03746,0.0,0,8.2962,0.0,0.071399,95.76,9.03262,361.946,-9.283062,95.76
2000,2000,165.3502,8.70165,1.07681,0.0,0,8.26837,0.0,0.0738635,97.9704,8.9927,362.038,-9.2828,97.9704
2001,2001,165.3504,8.69784,1.10686,0.0,0,8.24054,0.0,0.076048,97.701,8.954,362.131,-9.28283,97.701
2002,2002,165.3506,8.63731,1.12341,0.0,0,8.21271,0.0,0.0778737,96.8973,8.91951,362.2229,-9.2831,96.8973
2003,2003,165.3508,8.74642,1.14574,0.0,0,8.18487,0.0,0.0791206,97.9523,8.8884,362.315,-9.28331,97.9523
2004,2004,165.351,8.89938,1.17505,0.0,0,8.15704,0.0,0.0808876,99.4393,8.85693,362.408,-9.28333,99.4393
2005,2005,165.3512,8.82434,1.20413,0.0,0,8.12921,0.0,0.0834949,98.3785,8.82573,362.5,-9.28307,98.3785
2006,2006,165.3514,8.61191,1.24052,0.0,0,8.10138,0.0,0.0859533,95.7387,8.79779,362.592,-9.28235,95.7387
2007,2007,165.3516,8.61201,1.27165,0.0,0,8.07354,0.0,0.0878892,95.5076,8.76971,362.6745,-9.28232,95.5076
2008,2008,165.3518,8.90078,1.28873,0.0,0,8.04627,0.0,0.0896304,98.5784,8.74261,362.754,-9.28258,98.5784
2009,2009,165.352,9.15353,1.31785,0.0,0,8.01966,0.0,0.09157525,101.147,8.7134,362.834,-9.282361,101.147
2010,2010,165.3522,9.14502,1.36044,0.0,0,7.993176,0.0,0.0940956,100.715,8.6791,362.914,-9.28275,100.715
2011,2011,165.3524,9.00145,1.39872,0.0,0,7.9667,0.0,0.0973021,98.8354,8.64627,362.993,-9.28298,98.8354
2012,2012,165.3526,8.93154,1.44161,0.0,0,7.94022,0.0,0.100572,97.7359,8.61436,363.073,-9.28303,97.7359
2013,2013,165.3528,8.95914,1.48054,0.0,0,7.91374,0.0,0.103087,97.7356,8.58207,363.153,-9.28312,97.7356
2014,2014,165.353,8.96578,1.50239,0.0,0,7.88726,0.0,0.105121,97.6382,8.54745,363.2323,-9.28366,97.6382
2015,2015,165.3532,8.92748,1.53402,0.0,0,7.860775,0.0,0.107615,96.9765,8.51151,363.312,-9.283679,96.9765
2016,2016,165.3534,8.96389,1.57128,0.0,0,7.8343,0.0,0.109922,97.0824,8.48015,363.392,-9.283144,97.0824
2017,2017,165.3536,9.10536,1.5887,0.0,0,7.80782,0.0,0.1115905,98.4772,8.45055,363.471,-9.28234,98.4772
2018,2018,165.3538,9.21856,1.60508,0.0,0,7.78133,0.0,0.1131753,99.5705,8.41988,363.551,-9.282,99.5705
2019,2019,165.354,9.19975,1.62859,0.0,0,7.75486,0.0,0.1143619,99.1799,8.3913,363.631,-9.28246,99.1799
2020,2020,165.3542,9.11521,1.64945,0.0,0,7.728375,0.0,0.1159337,98.1036,8.36389,363.71,-9.28275,98.1036
2021,2021,165.3544,9.06466,1.68411,0.0,0,7.7019,0.0,0.118853,97.2872,8.33768,363.79,-9.28302,97.2872
2022,2022,165.3546,9.07938,1.7224,0.0,0,7.675415,0.0,0.121349,97.1437,8.31267,363.87,-9.28296,97.1437
2023,2023,165.3548,9.15194,1.73857,0.0,0,7.64893,0.0,0.1226911,97.7917,8.28612,363.949,-9.28298,97.7917
2024,2024,165.355,9.27277,1.75558,0.0,0,7.62246,0.0,0.124421,98.9462,8.25904,364.029,-9.28291,98.9462
2025,2025,165.3552,9.39128,1.7875,0.0,0,7.59598,0.0,0.126322,99.9507,8.23141,364.109,-9.28291,99.9507
2026,2026,165.3554,9.44238,1.81754,0.0,0,7.5695,0.0,0.128351,100.249,8.20076,364.189,-9.28307,100.249
2027,2027,165.3556,9.41088,1.850865,0.0,0,7.543015,0.0,0.131391,99.6422,8.17192,364.268,-9.2835,99.6422
2028,2028,165.3558,9.34414,1.88669,0.0,0,7.51654,0.0,0.134033,98.6453,8.14365,364.348,-9.283,98.6453
2029,2029,165.356,9.31912,1.91132,0.0,0,7.49006,0.0,0.135714,98.1821,8.11421,364.428,-9.28235,98.1821
2030,2030,165.3562,9.32844,1.93795,0.0,0,7.46358,0.0,0.138097,98.0647,8.08648,364.507,-9.28229,98.0647
2031,2031,165.3564,9.33646,1.97171,0.0,0,7.4371,0.0,0.140617,97.8756,8.05699,364.587,-9.2825,97.8756
2032,2032,165.3566,9.351285,1.99651,0.0,0,7.410615,0.0,0.1422285,97.8298,8.0277,364.667,-9.28304,97.8298
2033,2033,165.3568,9.411396,2.01545,0.0,0,7.384666,0.0,0.144101,98.3041,8.00148,364.7464,-9.28307,98.3041
2034,2034,165.357,9.50703,2.03653,0.0,0,7.35936,0.0,0.145817,99.1292,7.97457,364.826,-9.28288,99.1292
2035,2035,165.3572,9.558773,2.0584,0.0,0,7.33417,0.0,0.146983,99.4873,7.946919,364.906,-9.28221,99.4873
2036,2036,165.3574,9.53818,2.08567,0.0,0,7.30899,0.0,0.149307,99.0472,7.92183,364.985,-9.28169,99.0472
2037,2037,165.3576,9.47452,2.11649,0.0,0,7.2838,0.0,0.151931,98.1328,7.89885,365.065,-9.28139,98.1328
2038,2038,165.3578,9.43585,2.14107,0.0,0,7.25862,0.0,0.153501,97.5311,7.87528,365.145,-9.28132,97.5311
2039,2039,165.358,9.4812,2.15927,0.0,0,7.23344,0.0,0.155171,97.8501,7.85134,365.225,-9.28228,97.8501
2040,2040,165.3582,9.56859,2.17964,0.0,0,7.20825,0.0,0.157004,98.5828,7.82655,365.3042,-9.28307,98.5828
2041,2041,165.3584,9.634737,2.207006,0.0,0,7.18307,0.0,0.158541,99.0355,7.80053,365.384,-9.283617,99.0355
2042,2042,165.3586,9.67881,2.23585,0.0,0,7.15788,0.0,0.160811,99.2463,7.77531,365.464,-9.28377,99.2463
2043,2043,165.3588,9.70566,2.26233,0.0,0,7.132699,0.0,0.163457,99.2985,7.74938,365.543,-9.283247,99.2985
2044,2044,165.359,9.71343,2.2915,0.0,0,7.10751,0.0,0.165321,99.1321,7.72349,365.623,-9.28282,99.1321
2045,2045,165.3592,9.68907,2.31815,0.0,0,7.08233,0.0,0.167243,98.6594,7.69721,365.703,-9.28274,98.6594
2046,2046,165.3594,9.65471,2.34049,0.0,0,7.05715,0.0,0.169584,98.1222,7.67079,365.782,-9.282443,98.1222
2047,2047,165.3596,9.657444,2.36989,0.0,0,7.03196,0.0,0.171531,97.9035,7.64456,365.862,-9.281743,97.9035
2048,2048,165.3598,9.69554,2.39521,0.0,0,7.00678,0.0,0.173297,98.0766,7.6155,365.942,-9.28165,98.0766
2049,2049,165.36,9.7477,2.40922,0.0,0,6.981595,0.0,0.175137,98.4857,7.59205,366.021,-9.28235,98.4857
2050,2050,165.3602,9.79594,2.43163,0.0,0,6.95641,0.0,0.1766787,98.7825,7.56868,366.101,-9.28301,98.7825
2051,2051,165.3604,9.81434,2.45851,0.0,0,6.93123,0.0,0.178347,98.739,7.5431,366.181,-9.283493,98.739
2052,2052,165.3606,9.81205,2.47951,0.0,0,6.90604,0.0,0.180569,98.537,7.52226,366.26,-9.28355,98.537
2053,2053,165.3608,9.80532,2.50849,0.0,0,6.88086,0.0,0.182759,98.2226,7.49711,366.34,-9.28335,98.2226
2054,2054,165.361,9.79706,2.53543,0.0,0,6.85568,0.0,0.184435,97.9107,7.47118,366.42,-9.28384,97.9107
2055,2055,165.3612,9.82421,2.54847,0.0,0,6.83049,0.0,0.186021,98.0707,7.4503,366.5,-9.284338,98.0707
2056,2056,165.3614,9.90635,2.57182,0.0,0,6.80531,0.0,0.18788,98.6898,7.4242,366.579,-9.28425,98.6898
2057,2057,165.3616,9.98179,2.60297,0.0,0,6.78012,0.0,0.189789,99.1713,7.39873,366.623,-9.28372,99.1713
2058,2058,165.3618,9.99698,2.6229,0.0,0,6.75544,0.0,0.19188,99.1492,7.3772,366.643,-9.283,99.1492
2059,2059,165.362,9.96306,2.64896,0.0,0,6.73137,0.0,0.1941365,98.5873,7.35423,366.663,-9.28211,98.5873
2060,2060,165.3622,9.93638,2.67834,0.0,0,6.7074,0.0,0.195908,98.0697,7.32993,366.683,-9.28217,98.0697
2061,2061,165.3624,9.94871,2.6942,0.0,0,6.68344,0.0,0.197595,98.0543,7.30453,366.703,-9.28286,98.0543
2062,2062,165.3626,9.97805,2.71915,0.0,0,6.65948,0.0,0.199965,98.1272,7.28018,366.722,-9.28307,98.1272
2063,2063,165.3628,10.0046,2.750129,0.0,0,6.63552,0.0,0.201896,98.1189,7.25463,366.742,-9.28309,98.1189
2064,2064,165.363,10.028,2.7646,0.0,0,6.61156,0.0,0.203299,98.222,7.23064,366.762,-9.28362,98.222
2065,2065,165.3632,10.0719,2.78364,0.0,0,6.5876,0.0,0.205283,98.4857,7.20811,366.782,-9.283906,98.4857
2066,2066,165.3634,10.1268,2.81228,0.0,0,6.56364,0.0,0.207004,98.7706,7.18399,366.802,-9.28338,98.7706
2067,2067,165.3636,10.1496,2.83202,0.0,0,6.53968,0.0,0.208623,98.8188,7.16028,366.822,-9.28363,98.8188
2068,2068,165.3638,10.1331,2.85761,0.0,0,6.51572,0.0,0.211294,98.4327,7.1362,366.842,-9.283699,98.4327
2069,2069,165.364,10.1107,2.88891,0.0,0,6.49176,0.0,0.213486,97.9405,7.11347,366.861,-9.28319,97.9405
2070,2070,165.3642,10.118,2.90592,0.0,0,6.467802,0.0,0.214765,97.861,7.08961,366.881,-9.28315,97.861
2071,2071,165.3644,10.1664,2.9252,0.0,0,6.44384,0.0,0.216876,98.1597,7.06622,366.901,-9.28326,98.1597
2072,2072,165.3646,10.22543,2.95448,0.0,0,6.41988,0.0,0.21898,98.4689,7.043097,366.921,-9.28322,98.4689
2073,2073,165.3648,10.2702,2.97663,0.0,0,6.39592,0.0,0.220486,98.702,7.01898,366.941,-9.28253,98.702
2074,2074,165.365,10.3033,2.99823,0.0,0,6.37196,0.0,0.2228331,98.8268,6.99513,366.961,-9.28238,98.8268
2075,2075,165.3652,10.3242,3.02503,0.0,0,6.348,0.0,0.2250172,98.7871,6.97016,366.981,-9.28219,98.7871
2076,2076,165.3654,10.3285,3.04699,0.0,0,6.32404,0.0,0.226356,98.6308,6.94575,367.001,-9.28224,98.6308
2077,2077,165.3656,10.3204,3.07044,0.0,0,6.30008,0.0,0.2287229,98.343,6.92051,367.02,-9.2823,98.343
2078,2078,165.3658,10.31,3.09985,0.0,0,6.27612,0.0,0.23125,97.98,6.89575,367.04,-9.28228,97.98
2079,2079,165.366,10.3128,3.12295,0.0,0,6.252162,0.0,0.232733,97.7996,6.8737,367.06,-9.28338,97.7996
2080,2080,165.3662,10.3433,3.14281,0.0,0,6.2282,0.0,0.234803,97.9107,6.8496,367.08,-9.2842,97.9107
2081,2081,165.3664,10.3943,3.166467,0.0,0,6.20424,0.0,0.237037,98.179,6.82306,367.1,-9.28433,98.179
2082,2082,165.3666,10.4355,3.1894,0.0,0,6.18028,0.0,0.238425,98.3601,6.79987,367.12,-9.28439,98.3601
2083,2083,165.3668,10.46424,3.211663,0.0,0,6.1568,0.0,0.240498,98.4287,6.77801,367.14,-9.28389,98.4287
2084,2084,165.367,10.4845,3.23448,0.0,0,6.1339,0.0,0.24289,98.4117,6.75387,367.16,-9.28262,98.4117
2085,2085,165.3672,10.49601,3.257659,0.0,0,6.11111,0.0,0.244283,98.3077,6.72727,367.179,-9.28198,98.3077
2086,2086,165.3674,10.5073,3.27892,0.0,0,6.08832,0.0,0.2460928,98.2191,6.70378,367.199,-9.28241,98.2191
2087,2087,165.3676,10.52381,3.29919,0.0,0,6.06554,0.0,0.248371,98.1878,6.68178,367.219,-9.28228,98.1878
2088,2088,165.3678,10.5509,3.32612,0.0,0,6.042748,0.0,0.250154,98.1936,6.65758,367.239,-9.28166,98.1936
2089,2089,165.368,10.5743,3.35229,0.0,0,6.01996,0.0,0.2522814,98.1701,6.63344,367.259,-9.28232,98.1701
2090,2090,165.3682,10.596,3.37283,0.0,0,5.99717,0.0,0.254698,98.1823,6.61111,367.279,-9.28331,98.1823
2091,2091,165.3684,10.6191,3.39965,0.0,0,5.97438,0.0,0.256539,98.149,6.58696,367.299,-9.28404,98.149
2092,2092,165.3686,10.6508,3.42561,0.0,0,5.9516,0.0,0.258506,98.2013,6.56058,367.319,-9.28385,98.2013
2093,2093,165.3688,10.6809,3.44519,0.0,0,5.92881,0.0,0.2608929,98.2969,6.538178,367.338,-9.28315,98.2969
2094,2094,165.369,10.6982,3.47364,0.0,0,5.90602,0.0,0.26301,98.1909,6.51695,367.358,-9.28362,98.1909
2095,2095,165.3692,10.7116,3.50024,0.0,0,5.88323,0.0,0.264931,98.0657,6.4926,367.3782,-9.28434,98.0657
2096,2096,165.3694,10.7261,3.515208,0.0,0,5.86044,0.0,0.266974,98.0596,6.46952,367.398,-9.284,98.0596
2097,2097,165.3696,10.7483,3.54005,0.0,0,5.83766,0.0,0.268947,98.0299,6.44582,367.418,-9.28333,98.0299
2098,2098,165.3698,10.7684,3.56841,0.0,0,5.814867,0.0,0.270784,97.9475,6.42222,367.438,-9.28314,97.9475
2099,2099,165.37,10.7894,3.58541,0.0,0,5.792079,0.0,0.272958,97.9789,6.39821,367.4577,-9.28251,97.9789
2100,2100,165.3702,10.8139,3.61127,0.0,0,5.76929,0.0,0.275288,97.9575,6.37216,367.478,-9.28248,97.9575
2101,2101,165.3704,10.8346,3.64034,0.0,0,5.7465,0.0,0.277175,97.8713,6.349493,367.497,-9.28244,97.8713
2102,2102,165.3706,10.8555,3.65461,0.0,0,5.72372,0.0,0.278965,97.9253,6.32558,367.5173,-9.28245,97.9253
2103,2103,165.3708,10.8805,3.67958,0.0,0,5.70093,0.0,0.281264,97.9138,6.30204,367.5372,-9.28305,97.9138
2104,2104,165.371,10.9232,3.71117,0.0,0,5.67814,0.0,0.283304,97.9977,6.27933,367.557,-9.28307,97.9977
2105,2105,165.3712,10.9552,3.72732,0.0,0,5.65535,0.0,0.285197,98.1307,6.25561,367.577,-9.28306,98.1307
2106,2106,165.3714,10.9624,3.75115,0.0,0,5.63256,0.0,0.287677,97.9681,6.23071,367.5968,-9.283514,97.9681
2107,2107,165.3716,10.9736,3.78115,0.0,0,5.60978,0.0,0.289651,97.7817,6.20557,367.5491,-9.28373,97.7817
2108,2108,165.3718,10.9868,3.79721,0.0,0,5.58744,0.0,0.291317,97.7456,6.18256,367.4,-9.2833,97.7456
2109,2109,165.372,11.0035,3.82086,0.0,0,5.56566,0.0,0.2938982,97.6672,6.16022,367.251,-9.28312,97.6672
2110,2110,165.3722,11.0212,3.85308,0.0,0,5.54397,0.0,0.296101,97.515,6.13703,367.102,-9.28317,97.515
2111,2111,165.3724,11.0495,3.8707,0.0,0,5.52229,0.0,0.297802,97.5956,6.11306,366.953,-9.28314,97.5956
2112,2112,165.3726,11.1011,3.89315,0.0,0,5.50061,0.0,0.300478,97.8346,6.08943,366.804,-9.283,97.8346
2113,2113,165.3728,11.1471,3.92451,0.0,0,5.47893,0.0,0.302684,97.9351,6.06576,366.654,-9.28278,97.9351
2114,2114,165.373,11.1662,3.94291,0.0,0,5.457253,0.0,0.304235,97.9245,6.0426,366.505,-9.28269,97.9245
2115,2115,165.3732,11.1716,3.96371,0.0,0,5.43557,0.0,0.306813,97.7687,6.019731,366.3562,-9.28219,97.7687
2116,2116,165.3734,11.17841,3.9931,0.0,0,5.41389,0.0,0.309068,97.5424,5.99569,366.207,-9.28167,97.5424
2117,2117,165.3736,11.1915,4.01274,0.0,0,5.39221,0.0,0.310528,97.4654,5.97029,366.058,-9.28219,97.4654
2118,2118,165.3738,11.2086,4.0332,0.0,0,5.370533,0.0,0.31301,97.4141,5.94591,365.909,-9.28292,97.4141
2119,2119,165.374,11.2254,4.06249,0.0,0,5.34885,0.0,0.315565,97.2741,5.9235,365.76,-9.2837,97.2741
2120,2120,165.3742,11.2487,4.08552,0.0,0,5.32717,0.0,0.317195,97.2496,5.89858,365.611,-9.28432,97.2496
2121,2121,165.3744,11.2898,4.10603,0.0,0,5.30549,0.0,0.319611,97.4037,5.87503,365.462,-9.28393,97.4037
2122,2122,165.3746,11.3347,4.1315,0.0,0,5.283813,0.0,0.32208,97.5396,5.85114,365.312,-9.28337,97.5396
2123,2123,165.3748,11.3709,4.15479,0.0,0,5.26213,0.0,0.323577,97.6199,5.8261,365.1633,-9.28288,97.6199
2124,2124,165.375,11.3947,4.17642,0.0,0,5.24045,0.0,0.325988,97.609,5.80147,365.014,-9.28203,97.609
2125,2125,165.3752,11.3975,4.20181,0.0,0,5.21877,0.0,0.32865,97.3812,5.7773,364.865,-9.28158,97.3812
2126,2126,165.3754,11.4004,4.2257,0.0,0,5.19709,0.0,0.330221,97.168,5.75454,364.716,-9.28196,97.168
2127,2127,165.3756,11.4162,4.2469,0.0,0,5.17541,0.0,0.33246,97.0923,5.72986,364.567,-9.28204,97.0923
2128,2128,165.3758,11.4447,4.27029,0.0,0,5.15373,0.0,0.335057,97.1008,5.70714,364.418,-9.28166,97.1008
2129,2129,165.376,11.4816,4.29583,0.0,0,5.13205,0.0,0.336744,97.1588,5.684608,364.269,-9.28226,97.1588
2130,2130,165.3762,11.5102,4.31813,0.0,0,5.110373,0.0,0.3389878,97.177,5.66028,364.12,-9.28353,97.177
2131,2131,165.3764,11.5385,4.3392,0.0,0,5.08869,0.0,0.341575,97.2031,5.63667,363.9704,-9.28366,97.2031
2132,2132,165.3766,11.5758,4.36522,0.0,0,5.06701,0.0,0.3432987,97.2554,5.61332,363.821,-9.28374,97.2554
2133,2133,165.3768,11.5985,4.38839,0.0,0,5.04577,0.0,0.345355,97.2117,5.59121,363.672,-9.28366,97.2117
2134,2134,165.377,11.6067,4.40868,0.0,0,5.02505,0.0,0.348062,97.0748,5.57046,363.523,-9.28304,97.0748
2135,2135,165.3772,11.6229,4.43587,0.0,0,5.00442,0.0,0.350127,96.9343,5.54563,363.374,-9.28274,96.9343
2136,2136,165.3774,11.637,4.46027,0.0,0,4.9838,0.0,0.352115,96.8046,5.52076,363.225,-9.28264,96.8046
2137,2137,165.3776,11.6582,4.47781,0.0,0,4.96318,0.0,0.354534,96.8025,5.49769,363.076,-9.28291,96.8025
2138,2138,165.3778,11.6854,4.50376,0.0,0,4.94256,0.0,0.356584,96.7637,5.47376,362.927,-9.28305,96.7637
2139,2139,165.378,11.7094,4.52883,0.0,0,4.92194,0.0,0.358528,96.7068,5.45099,362.7775,-9.28308,96.7068
2140,2140,165.3782,11.7294,4.54535,0.0,0,4.90132,0.0,0.36093,96.703,5.4279,362.628,-9.2831,96.703
2141,2141,165.3784,11.7556,4.57194,0.0,0,4.8807,0.0,0.3632383,96.6456,5.40322,362.479,-9.28355,96.6456
2142,2142,165.3786,11.7875,4.59916,0.0,0,4.86008,0.0,0.365134,96.6279,5.37858,362.33,-9.283577,96.6279
2143,2143,165.3788,11.8099,4.61386,0.0,0,4.83946,0.0,0.36732,96.6602,5.3573,362.181,-9.28327,96.6602
2144,2144,165.379,11.8374,4.63833,0.0,0,4.81884,0.0,0.369696,96.6322,5.33675,362.032,-9.28331,96.6322
2145,2145,165.3792,11.8618,4.66753,0.0,0,4.798224,0.0,0.37169,96.5294,5.31534,361.883,-9.28325,96.5294
2146,2146,165.3794,11.8725,4.68328,0.0,0,4.7776,0.0,0.373879,96.453,5.2944,361.7337,-9.28261,96.453
2147,2147,165.3796,11.8855,4.70647,0.0,0,4.75698,0.0,0.3763898,96.3181,5.26955,361.585,-9.28233,96.3181
2148,2148,165.3798,11.90571,4.73541,0.0,0,4.73636,0.0,0.378319,96.1813,5.24364,361.435,-9.28288,96.1813
2149,2149,165.38,11.92605,4.75123,0.0,0,4.71574,0.0,0.380313,96.1809,5.22209,361.286,-9.28305,96.1809
2150,2150,165.3802,11.9515,4.775002,0.0,0,4.69512,0.0,0.383095,96.1383,5.203403,361.137,-9.28254,96.1383
2151,2151,165.3804,11.9799,4.804821,0.0,0,4.6745,0.0,0.385286,96.0549,5.18072,360.988,-9.28252,96.0549
2152,2152,165.3806,12.0081,4.81915,0.0,0,4.65388,0.0,0.387025,96.1306,5.15592,360.839,-9.28362,96.1306
2153,2153,165.3808,12.0465,4.84014,0.0,0,4.63326,0.0,0.389639,96.2167,5.13258,360.69,-9.28367,96.2167
2154,2154,165.381,12.0841,4.87013,0.0,0,4.61264,0.0,0.3917827,96.2008,5.11095,360.5408,-9.28295,96.2008
2155,2155,165.3812,12.1084,4.88739,0.0,0,4.59202,0.0,0.393541,96.2115,5.08955,360.392,-9.28282,96.2115
2156,2156,165.3814,12.1155,4.90898,0.0,0,4.5714,0.0,0.396439,96.0398,5.06569,360.243,-9.28292,96.0398
2157,2157,165.3816,12.11382,4.93857,0.0,0,4.55078,0.0,0.398732,95.7134,5.04402,360.089,-9.28287,95.7134
2158,2158,165.3818,12.1249,4.95514,0.0,0,4.53058,0.0,0.400204,95.6257,5.02283,359.9162,-9.28292,95.6257
2159,2159,165.382,12.1484,4.97412,0.0,0,4.51087,0.0,0.402887,95.6094,5.00066,359.744,-9.28322,95.6094
2160,2160,165.3822,12.17924,5.003006,0.0,0,4.49125,0.0,0.405325,95.5448,4.97867,359.571,-9.28328,95.5448
2161,2161,165.3824,12.2216,5.02193,0.0,0,4.47163,0.0,0.406786,95.6748,4.95529,359.398,-9.28342,95.6748
2162,2162,165.3826,12.2649,5.04021,0.0,0,4.45201,0.0,0.409334,95.818,4.93224,359.226,-9.28309,95.818
2163,2163,165.3828,12.2956,5.06676,0.0,0,4.4324,0.0,0.411912,95.7727,4.91032,359.053,-9.2821,95.7727
2164,2164,165.383,12.3093,5.08701,0.0,0,4.41278,0.0,0.413393,95.662,4.88931,358.881,-9.28159,95.662
2165,2165,165.3832,12.3178,5.10628,0.0,0,4.39317,0.0,0.41597,95.5203,4.86935,358.7081,-9.28145,95.5203
2166,2166,165.3834,12.3316,5.1335,0.0,0,4.37355,0.0,0.418761,95.334,4.84738,358.536,-9.2817,95.334
2167,2167,165.3836,12.3435,5.15601,0.0,0,4.35393,0.0,0.420315,95.1832,4.82263,358.363,-9.28248,95.1832
2168,2168,165.3838,12.3565,5.17439,0.0,0,4.33432,0.0,0.4227646,95.0847,4.8007,358.19,-9.28301,95.0847
2169,2169,165.384,12.38948,5.19796,0.0,0,4.3147,0.0,0.425437,95.0834,4.782702,358.018,-9.28373,95.0834
2170,2170,165.3842,12.4385,5.22017,0.0,0,4.29509,0.0,0.426963,95.2178,4.75904,357.845,-9.283926,95.2178
2171,2171,165.3844,12.4862,5.23921,0.0,0,4.27547,0.0,0.4293111,95.3751,4.73457,357.673,-9.28328,95.3751
2172,2172,165.3846,12.5171,5.26016,0.0,0,4.25585,0.0,0.431913,95.3822,4.7139,357.5,-9.28324,95.3822
2173,2173,165.3848,12.5328,5.28283,0.0,0,4.236237,0.0,0.43343,95.2532,4.69141,357.327,-9.28385,95.2532
2174,2174,165.385,12.5432,5.30308,0.0,0,4.21662,0.0,0.435686,95.1107,4.67024,357.155,-9.28435,95.1107
2175,2175,165.3852,12.5594,5.32306,0.0,0,4.19701,0.0,0.43845,95.014,4.64935,356.982,-9.28378,95.014
2176,2176,165.3854,12.5787,5.34831,0.0,0,4.17739,0.0,0.440245,94.8822,4.62737,356.81,-9.282423,94.8822
2177,2177,165.3856,12.5901,5.36926,0.0,0,4.15777,0.0,0.442322,94.7377,4.60586,356.637,-9.28229,94.7377
2178,2178,165.3858,12.6043,5.385704,0.0,0,4.13816,0.0,0.444916,94.6631,4.58497,356.465,-9.28241,94.6631
2179,2179,165.386,12.6324,5.41012,0.0,0,4.11854,0.0,0.446799,94.6044,4.56273,356.2919,-9.28176,94.6044
2180,2180,165.3862,12.6767,5.43184,0.0,0,4.09893,0.0,0.4487696,94.6951,4.5425,356.119,-9.28204,94.6951
2181,2181,165.3864,12.7143,5.44742,0.0,0,4.07931,0.0,0.451347,94.8031,4.52157,355.947,-9.28255,94.8031
2182,2182,165.3866,12.7462,5.47333,0.0,0,4.05969,0.0,0.453505,94.752,4.4994,355.774,-9.28283,94.752
2183,2183,165.3868,12.7749,5.49729,0.0,0,4.04047,0.0,0.455451,94.6976,4.47982,355.602,-9.28328,94.6976
2184,2184,165.387,12.7903,5.51076,0.0,0,4.02173,0.0,0.45785,94.6605,4.46043,355.429,-9.283309,94.6605
2185,2185,165.3872,12.8065,5.5349,0.0,0,4.00307,0.0,0.460088,94.5103,4.44047,355.256,-9.28364,94.5103
2186,2186,165.3874,12.8223,5.560833,0.0,0,3.98441,0.0,0.46209,94.3363,4.41992,355.084,-9.284132,94.3363
2187,2187,165.3876,12.8424,5.57334,0.0,0,3.96575,0.0,0.464386,94.3429,4.39747,354.911,-9.28359,94.3429
2188,2188,165.3878,12.8759,5.59506,0.0,0,3.9471,0.0,0.466668,94.345,4.37541,354.739,-9.28241,94.345
2189,2189,165.388,12.9035,5.621809,0.0,0,3.928441,0.0,0.468547,94.2446,4.35537,354.566,-9.281621,94.2446
2190,2190,165.3882,12.9307,5.63416,0.0,0,3.90979,0.0,0.470698,94.3038,4.336391,354.393,-9.28126,94.3038
2191,2191,165.3884,12.9665,5.65557,0.0,0,3.89113,0.0,0.473281,94.3218,4.31582,354.221,-9.281847,94.3218
2192,2192,165.3886,13.0029,5.68393,0.0,0,3.87247,0.0,0.475208,94.2642,4.29564,354.048,-9.28182,94.2642
2193,2193,165.3888,13.0306,5.69639,0.0,0,3.85382,0.0,0.477068,94.3228,4.27688,353.876,-9.28148,94.3228
2194,2194,165.389,13.046,5.71577,0.0,0,3.83516,0.0,0.479765,94.2125,4.25477,353.703,-9.282,94.2125
2195,2195,165.3892,13.0616,5.74328,0.0,0,3.81651,0.0,0.481778,94.0111,4.23426,353.531,-9.282609,94.0111
2196,2196,165.3894,13.07993,5.75576,0.0,0,3.79785,0.0,0.483415,93.9997,4.21489,353.358,-9.28374,93.9997
2197,2197,165.3896,13.0993,5.77499,0.0,0,3.77919,0.0,0.486147,93.9185,4.19527,353.185,-9.283884,93.9185
2198,2198,165.3898,13.1228,5.80235,0.0,0,3.76054,0.0,0.488257,93.7727,4.17577,353.013,-9.28322,93.7727
2199,2199,165.39,13.156,5.81541,0.0,0,3.74188,0.0,0.489844,93.8595,4.15394,352.84,-9.28366,93.8595
2200,2200,165.3902,13.198,5.83411,0.0,0,3.72323,0.0,0.492708,93.9425,4.13328,352.668,-9.28325,93.9425
2201,2201,165.3904,13.2433,5.862,0.0,0,3.70457,0.0,0.494943,93.9418,4.11504,352.495,-9.28158,93.9418
2202,2202,165.3906,13.27982,5.87663,0.0,0,3.68591,0.0,0.4963505,94.0307,4.09604,352.322,-9.2806,94.0307
2203,2203,165.3908,13.3003,5.89303,0.0,0,3.66726,0.0,0.49906,93.9849,4.07578,352.15,-9.28075,93.9849
2204,2204,165.391,13.3184,5.91946,0.0,0,3.6486,0.0,0.501438,93.8044,4.0555,351.977,-9.28136,93.8044
2205,2205,165.3912,13.3311,5.936264,0.0,0,3.629945,0.0,0.502854,93.6976,4.03576,351.805,-9.28152,93.6976
2206,2206,165.3914,13.3417,5.95303,0.0,0,3.611289,0.0,0.505617,93.576,4.01622,351.632,-9.28234,93.576
2207,2207,165.3916,13.3662,5.9781,0.0,0,3.59263,0.0,0.508226,93.4542,3.99828,351.46,-9.28339,93.4542
2208,2208,165.3918,13.406,5.99498,0.0,0,3.57435,0.0,0.50943,93.5343,3.97827,351.516,-9.283453,93.5343
2209,2209,165.392,13.443,6.0093,0.0,0,3.55652,0.0,0.511667,93.6241,3.95728,351.573,-9.28385,93.6241
2210,2210,165.3922,13.4754,6.03124,0.0,0,3.53876,0.0,0.514179,93.5901,3.939728,351.63,-9.28387,93.5901
2211,2211,165.3924,13.5158,6.04982,0.0,0,3.52102,0.0,0.515566,93.6508,3.92061,351.687,-9.28331,93.6508
2212,2212,165.3926,13.5558,6.0667,0.0,0,3.50327,0.0,0.518035,93.7278,3.90126,351.743,-9.28292,93.7278
2213,2213,165.3928,13.5787,6.08944,0.0,0,3.48552,0.0,0.520863,93.6154,3.88383,351.8,-9.28204,93.6154
2214,2214,165.393,13.58469,6.11024,0.0,0,3.46777,0.0,0.5223437,93.4089,3.86462,351.857,-9.28221,93.4089
2215,2215,165.3932,13.5967,6.12714,0.0,0,3.45002,0.0,0.524682,93.2903,3.84519,351.914,-9.28229,93.2903
2216,2216,165.3934,13.6259,6.14736,0.0,0,3.43228,0.0,0.527473,93.2489,3.82399,351.97,-9.28171,93.2489
2217,2217,165.3936,13.65766,6.16919,0.0,0,3.41453,0.0,0.528956,93.2049,3.80342,352.027,-9.2816,93.2049
2218,2218,165.3938,13.6915,6.18607,0.0,0,3.39678,0.0,0.531077,93.2331,3.78608,352.084,-9.282114,93.2331
2219,2219,165.394,13.73,6.20242,0.0,0,3.37903,0.0,0.533802,93.2989,3.76656,352.1405,-9.2825,93.2989
2220,2220,165.3942,13.7682,6.22454,0.0,0,3.36128,0.0,0.535481,93.291,3.74599,352.197,-9.28256,93.291
2221,2221,165.3944,13.8066,6.242722,0.0,0,3.34354,0.0,0.537453,93.3315,3.72771,352.254,-9.28289,93.3315
2222,2222,165.3946,13.8295,6.257246,0.0,0,3.32579,0.0,0.540096,93.3098,3.71005,352.311,-9.2836,93.3098
2223,2223,165.3948,13.8497,6.27993,0.0,0,3.30804,0.0,0.541899,93.171,3.69232,352.367,-9.28365,93.171
2224,2224,165.395,13.87824,6.29853,0.0,0,3.29029,0.0,0.543672,93.1364,3.6729,352.424,-9.28312,93.1364
2225,2225,165.3952,13.9015,6.31058,0.0,0,3.27254,0.0,0.546223,93.1459,3.65382,352.481,-9.28288,93.1459
2226,2226,165.3954,13.928,6.333602,0.0,0,3.2548,0.0,0.548212,93.0422,3.63611,352.538,-9.28292,93.0422
2227,2227,165.3956,13.95764,6.354269,0.0,0,3.23705,0.0,0.549936,92.9869,3.61735,352.594,-9.28263,92.9869
2228,2228,165.3958,13.9879,6.36482,0.0,0,3.2193,0.0,0.552325,93.059,3.59928,352.651,-9.28198,93.059
2229,2229,165.396,14.0307,6.38668,0.0,0,3.20155,0.0,0.554556,93.075,3.58183,352.708,-9.28161,93.075
2230,2230,165.3962,14.0781,6.41064,0.0,0,3.1838,0.0,0.556408,93.0936,3.56265,352.765,-9.28144,93.0936
2231,2231,165.3964,14.1144,6.42316,0.0,0,3.16606,0.0,0.558824,93.1784,3.54309,352.821,-9.281518,93.1784
2232,2232,165.3966,14.1426,6.44479,0.0,0,3.14831,0.0,0.561289,93.0958,3.52595,352.8782,-9.28224,93.0958
2233,2233,165.3968,14.16571,6.470005,0.0,0,3.13091,0.0,0.56317,92.9348,3.50836,352.935,-9.28299,92.9348
2234,2234,165.397,14.1929,6.48054,0.0,0,3.11395,0.0,0.565388,92.9816,3.49068,352.9917,-9.2824,92.9816
2235,2235,165.3972,14.2243,6.499516,0.0,0,3.09706,0.0,0.567937,92.9511,3.47213,353.048,-9.28238,92.9511
2236,2236,165.3974,14.2508,6.52469,0.0,0,3.08018,0.0,0.5697065,92.8088,3.45084,353.105,-9.28247,92.8088
2237,2237,165.3976,14.2738,6.53388,0.0,0,3.06329,0.0,0.571533,92.844,3.43087,353.162,-9.28147,92.844
2238,2238,165.3978,14.2993,6.55063,0.0,0,3.04641,0.0,0.574092,92.7994,3.41523,353.219,-9.28152,92.7994
2239,2239,165.398,14.3386,6.575397,0.0,0,3.02953,0.0,0.575899,92.7426,3.39979,353.275,-9.28177,92.7426
2240,2240,165.3982,14.387,6.5854,0.0,0,3.01264,0.0,0.577571,92.9298,3.38156,353.332,-9.28192,92.9298
2241,2241,165.3984,14.4257,6.60251,0.0,0,2.99576,0.0,0.580383,92.9627,3.36384,353.389,-9.28254,92.9627
2242,2242,165.3986,14.4587,6.62909,0.0,0,2.97887,0.0,0.582404,92.8384,3.34582,353.446,-9.28215,92.8384
2243,2243,165.3988,14.4922,6.64065,0.0,0,2.96199,0.0,0.583852,92.9059,3.32748,353.502,-9.28165,92.9059
2244,2244,165.399,14.5189,6.65638,0.0,0,2.94511,0.0,0.586748,92.8766,3.31052,353.559,-9.28168,92.8766
2245,2245,165.3992,14.5465,6.68295,0.0,0,2.92822,0.0,0.589018,92.7141,3.2935,353.616,-9.28186,92.7141
2246,2246,165.3994,14.57298,6.69648,0.0,0,2.91134,0.0,0.590478,92.7096,3.27393,353.673,-9.28182,92.7096
2247,2247,165.3996,14.5945,6.71205,0.0,0,2.894454,0.0,0.593348,92.6467,3.25547,353.7294,-9.28154,92.6467
2248,2248,165.3998,14.6291,6.73722,0.0,0,2.87757,0.0,0.595774,92.543,3.23924,353.786,-9.28156,92.543
2249,2249,165.4,14.6813,6.75057,0.0,0,2.86069,0.0,0.597043,92.7017,3.22082,353.8429,-9.281702,92.7017
2250,2250,165.4002,14.7377,6.76429,0.0,0,2.8438,0.0,0.599668,92.8799,3.20209,353.9,-9.28235,92.8799
2251,2251,165.4004,14.7909,6.78775,0.0,0,2.82692,0.0,0.602229,92.9106,3.18396,353.956,-9.28297,92.9106
2252,2252,165.4006,14.8323,6.80285,0.0,0,2.810034,0.0,0.603354,92.9739,3.16564,354.013,-9.28233,92.9739
2253,2253,165.4008,14.8521,6.8161,0.0,0,2.79315,0.0,0.6058566,92.9248,3.15004,354.07,-9.28159,92.9248
2254,2254,165.401,14.8689,6.83838,0.0,0,2.77627,0.0,0.608547,92.7395,3.13417,354.127,-9.28154,92.7395
2255,2255,165.4012,14.8958,6.85567,0.0,0,2.75938,0.0,0.609704,92.6808,3.11512,354.183,-9.28205,92.6808
2256,2256,165.4014,14.9292,6.87069,0.0,0,2.7425,0.0,0.612223,92.6915,3.09694,354.24,-9.28226,92.6915
2257,2257,165.4016,14.9643,6.891964,0.0,0,2.72561,0.0,0.615189,92.6298,3.08062,354.297,-9.28248,92.6298
2258,2258,165.4018,15.0056,6.91068,0.0,0,2.70907,0.0,0.616599,92.6388,3.06342,354.11,-9.28327,92.6388
2259,2259,165.402,15.0509,6.92599,0.0,0,2.69293,0.0,0.618992,92.7157,3.045707,353.861,-9.2833,92.7157
2260,2260,165.4022,15.1016,6.944283,0.0,0,2.67687,0.0,0.621878,92.7851,3.02639,353.613,-9.28265,92.7851
2261,2261,165.4024,15.1525,6.96379,0.0,0,2.66081,0.0,0.623226,92.838,3.00885,353.364,-9.28186,92.838
2262,2262,165.4026,15.1912,6.97835,0.0,0,2.64475,0.0,0.625264,92.8809,2.9939,353.116,-9.28096,92.8809
2263,2263,165.4028,15.2164,6.99309,0.0,0,2.62869,0.0,0.628064,92.8381,2.97847,352.868,-9.28025,92.8381
2264,2264,165.403,15.234,7.013351,0.0,0,2.61263,0.0,0.629571,92.6738,2.96062,352.619,-9.28051,92.6738
2265,2265,165.4032,15.2537,7.03,0.0,0,2.59657,0.0,0.631561,92.5707,2.94178,352.371,-9.28153,92.5707
2266,2266,165.4034,15.28942,7.04341,0.0,0,2.580507,0.0,0.6343224,92.6072,2.92355,352.122,-9.28238,92.6072
2267,2267,165.4036,15.3346,7.06593,0.0,0,2.56445,0.0,0.636108,92.5774,2.9051,351.874,-9.28266,92.5774
2268,2268,165.4038,15.3714,7.08522,0.0,0,2.54839,0.0,0.638156,92.539,2.88917,351.6257,-9.28219,92.539
2269,2269,165.404,15.4185,7.09625,0.0,0,2.53233,0.0,0.640964,92.6726,2.873188,351.377,-9.28222,92.6726
2270,2270,165.4042,15.4798,7.11749,0.0,0,2.51627,0.0,0.643001,92.7524,2.85489,351.129,-9.28209,92.7524
2271,2271,165.4044,15.5265,7.1374,0.0,0,2.50021,0.0,0.644829,92.76,2.83657,350.881,-9.28139,92.76
2272,2272,165.4046,15.5676,7.14796,0.0,0,2.48415,0.0,0.647461,92.8613,2.81897,350.632,-9.28143,92.8613
2273,2273,165.4048,15.6067,7.16919,0.0,0,2.46809,0.0,0.649784,92.8033,2.80339,350.384,-9.28151,92.8033
2274,2274,165.405,15.6334,7.19076,0.0,0,2.45203,0.0,0.6515885,92.665,2.78778,350.135,-9.28204,92.665
2275,2275,165.4052,15.6582,7.19892,0.0,0,2.43597,0.0,0.653766,92.6997,2.77105,349.887,-9.28207,92.6997
2276,2276,165.4054,15.6881,7.21795,0.0,0,2.41991,0.0,0.656099,92.6141,2.752151,349.639,-9.28206,92.6141
2277,2277,165.4056,15.7285,7.24145,0.0,0,2.40385,0.0,0.657894,92.5277,2.73336,349.39,-9.28186,92.5277
2278,2278,165.4058,15.7763,7.25034,0.0,0,2.38779,0.0,0.660057,92.6857,2.71836,349.142,-9.280817,92.6857
2279,2279,165.406,15.8278,7.26908,0.0,0,2.37173,0.0,0.662771,92.7273,2.70278,348.893,-9.28096,92.7273
2280,2280,165.4062,15.8767,7.29346,0.0,0,2.35567,0.0,0.6646291,92.673,2.68489,348.645,-9.280756,92.673
2281,2281,165.4064,15.92,7.301537,0.0,0,2.339607,0.0,0.666549,92.8124,2.66628,348.3967,-9.28071,92.8124
2282,2282,165.4066,15.9626,7.31897,0.0,0,2.32355,0.0,0.66939,92.8165,2.65064,348.148,-9.28143,92.8165
2283,2283,165.4068,15.9943,7.34438,0.0,0,2.30781,0.0,0.6713571,92.6431,2.63465,347.9,-9.28155,92.6431
2284,2284,165.407,16.0148,7.35276,0.0,0,2.29246,0.0,0.673083,92.6435,2.61714,347.652,-9.28155,92.6435
2285,2285,165.4072,16.0411,7.36854,0.0,0,2.27718,0.0,0.676109,92.5728,2.59888,347.403,-9.281497,92.5728
2286,2286,165.4074,16.0773,7.39442,0.0,0,2.261904,0.0,0.678196,92.4157,2.58122,347.155,-9.28151,92.4157
2287,2287,165.4076,16.1172,7.40422,0.0,0,2.24663,0.0,0.679634,92.5064,2.56481,346.9064,-9.28124,92.5064
2288,2288,165.4078,16.1725,7.41821,0.0,0,2.23135,0.0,0.682581,92.6242,2.54791,346.658,-9.2807,92.6242
2289,2289,165.408,16.2396,7.4424,0.0,0,2.21608,0.0,0.684721,92.6631,2.5328,346.41,-9.28029,92.6631
2290,2290,165.4082,16.2963,7.45277,0.0,0,2.2008,0.0,0.6859569,92.8376,2.51733,346.161,-9.28006,92.8376
2291,2291,165.4084,16.3403,7.46678,0.0,0,2.185524,0.0,0.688927,92.8871,2.4989,345.913,-9.27996,92.8871
2292,2292,165.4086,16.371,7.49169,0.0,0,2.170248,0.0,0.691375,92.7022,2.48222,345.664,-9.28012,92.7022
2293,2293,165.4088,16.3988,7.50408,0.0,0,2.15497,0.0,0.692582,92.681,2.46788,345.416,-9.28087,92.681
2294,2294,165.409,16.4318,7.51606,0.0,0,2.1397,0.0,0.695468,92.6939,2.44934,345.168,-9.28146,92.6939
2295,2295,165.4092,16.47135,7.538218,0.0,0,2.12442,0.0,0.698071,92.596,2.43162,344.919,-9.2813,92.596
2296,2296,165.4094,16.5155,7.55242,0.0,0,2.109144,0.0,0.699149,92.6374,2.41725,344.671,-9.28143,92.6374
2297,2297,165.4096,16.5662,7.56515,0.0,0,2.093868,0.0,0.701918,92.7366,2.40017,344.423,-9.2812,92.7366
2298,2298,165.4098,16.6243,7.58669,0.0,0,2.07859,0.0,0.7048009,92.7463,2.38364,344.174,-9.28095,92.7463
2299,2299,165.41,16.68074,7.6031,0.0,0,2.06332,0.0,0.705949,92.8201,2.3682,343.926,-9.28082,92.8201
2300,2300,165.4102,16.7283,7.61598,0.0,0,2.04804,0.0,0.708505,92.8947,2.35081,343.6774,-9.28095,92.8947
2301,2301,165.4104,16.767,7.63514,0.0,0,2.03276,0.0,0.711404,92.827,2.33349,343.429,-9.2808,92.827
2302,2302,165.4106,16.8045,7.652699,0.0,0,2.01749,0.0,0.71267,92.7746,2.31678,343.181,-9.28066,92.7746
2303,2303,165.4108,16.839,7.66661,0.0,0,2.002212,0.0,0.715175,92.759,2.29871,342.932,-9.2806,92.759
2304,2304,165.411,16.8686,7.68418,0.0,0,1.986936,0.0,0.718238,92.6611,2.28225,342.684,-9.27979,92.6611
2305,2305,165.4112,16.9133,7.70193,0.0,0,1.97166,0.0,0.7195254,92.6417,2.26998,342.435,-9.28033,92.6417
2306,2306,165.4114,16.9667,7.714694,0.0,0,1.95638,0.0,0.721635,92.7438,2.254885,342.1871,-9.28113,92.7438
2307,2307,165.4116,17.0237,7.72913,0.0,0,1.941108,0.0,0.724566,92.8386,2.23723,341.939,-9.281354,92.8386
2308,2308,165.4118,17.0809,7.74841,0.0,0,1.92614,0.0,0.725974,92.8605,2.22151,341.5928,-9.28152,92.8605
2309,2309,165.412,17.1292,7.76262,0.0,0,1.91154,0.0,0.727954,92.9087,2.20655,341.182,-9.28157,92.9087
2310,2310,165.4122,17.1786,7.77416,0.0,0,1.897,0.0,0.730829,93.0017,2.19172,340.7709,-9.28157,93.0017
2311,2311,165.4124,17.2283,7.794034,0.0,0,1.88247,0.0,0.732475,92.9695,2.17487,340.36,-9.28136,92.9695
2312,2312,165.4126,17.2743,7.81034,0.0,0,1.86794,0.0,0.734351,92.9694,2.15871,339.949,-9.28114,92.9694
2313,2313,165.4128,17.31258,7.82131,0.0,0,1.8534,0.0,0.737315,93.008,2.14398,339.538,-9.28057,93.008
2314,2314,165.413,17.3456,7.84242,0.0,0,1.83887,0.0,0.739485,92.8629,2.12678,339.127,-9.28001,92.8629
2315,2315,165.4132,17.3863,7.86046,0.0,0,1.82434,0.0,0.741269,92.8041,2.10944,338.716,-9.27998,92.8041
2316,2316,165.4134,17.43655,7.86944,0.0,0,1.80981,0.0,0.7439158,92.9344,2.096873,338.305,-9.27981,92.9344
2317,2317,165.4136,17.49,7.88992,0.0,0,1.79528,0.0,0.746207,92.9036,2.08109,337.894,-9.279911,92.9036
2318,2318,165.4138,17.5403,7.91057,0.0,0,1.78074,0.0,0.748031,92.8518,2.063844,337.483,-9.28007,92.8518
2319,2319,165.414,17.5987,7.91822,0.0,0,1.76621,0.0,0.75062,93.0419,2.04847,337.072,-9.27996,93.0419
2320,2320,165.4142,17.6613,7.93652,0.0,0,1.75168,0.0,0.753106,93.0881,2.03254,336.661,-9.27995,93.0881
2321,2321,165.4144,17.7128,7.95803,0.0,0,1.73715,0.0,0.754821,93.0238,2.01789,336.25,-9.2799,93.0238
2322,2322,165.4146,17.7531,7.96472,0.0,0,1.72262,0.0,0.756994,93.1308,2.00398,335.839,-9.27999,93.1308
2323,2323,165.4148,17.7904,7.98225,0.0,0,1.70808,0.0,0.759677,93.0513,1.98821,335.4285,-9.28015,93.0513
2324,2324,165.415,17.8347,8.00481,0.0,0,1.69355,0.0,0.76145,92.9282,1.97272,335.018,-9.28024,92.9282
2325,2325,165.4152,17.8831,8.01052,0.0,0,1.67902,0.0,0.76327,93.0905,1.95756,334.6066,-9.27999,93.0905
2326,2326,165.4154,17.9317,8.02633,0.0,0,1.66449,0.0,0.766093,93.0933,1.94097,334.196,-9.27984,93.0933
2327,2327,165.4156,17.9836,8.04967,0.0,0,1.64996,0.0,0.767961,92.9929,1.92629,333.7847,-9.28065,92.9929
2328,2328,165.4158,18.0435,8.056263,0.0,0,1.63542,0.0,0.769641,93.1973,1.9098,333.374,-9.28085,93.1973
2329,2329,165.416,18.1093,8.07159,0.0,0,1.62089,0.0,0.772816,93.2925,1.894487,332.9628,-9.28077,93.2925
2330,2330,165.4162,18.1712,8.09657,0.0,0,1.60636,0.0,0.774922,93.2114,1.87929,332.552,-9.28057,93.2114
2331,2331,165.4164,18.2221,8.104619,0.0,0,1.59183,0.0,0.776404,93.3432,1.86337,332.1409,-9.27929,93.3432
2332,2332,165.4166,18.2652,8.118269,0.0,0,1.5773,0.0,0.7796,93.3437,1.84959,331.73,-9.27877,93.3437
2333,2333,165.4168,18.3094,8.14352,0.0,0,1.56305,0.0,0.7819556,93.1619,1.83334,331.319,-9.279355,93.1619
2334,2334,165.417,18.3595,8.15315,0.0,0,1.54916,0.0,0.783262,93.2608,1.81689,330.908,-9.27984,93.2608
2335,2335,165.4172,18.40345,8.164587,0.0,0,1.53534,0.0,0.786235,93.2985,1.80291,330.497,-9.27995,93.2985
2336,2336,165.4174,18.4466,8.18708,0.0,0,1.52151,0.0,0.788604,93.1515,1.78913,330.086,-9.28001,93.1515
2337,2337,165.4176,18.5047,8.19737,0.0,0,1.50769,0.0,0.789589,93.277,1.77253,329.675,-9.28055,93.277
2338,2338,165.4178,18.5691,8.20783,0.0,0,1.49387,0.0,0.792431,93.4299,1.75584,329.264,-9.28105,93.4299
2339,2339,165.418,18.6351,8.2287,0.0,0,1.48004,0.0,0.79503,93.4191,1.74176,328.853,-9.28055,93.4191
2340,2340,165.4182,18.6949,8.24055,0.0,0,1.46622,0.0,0.795912,93.5233,1.7279,328.442,-9.28003,93.5233
2341,2341,165.4184,18.7447,8.25119,0.0,0,1.45239,0.0,0.798751,93.5966,1.71123,328.031,-9.28001,93.5966
2342,2342,165.4186,18.7925,8.27237,0.0,0,1.43857,0.0,0.801774,93.484,1.6973,327.62,-9.27982,93.484
2343,2343,165.4188,18.8385,8.28719,0.0,0,1.42475,0.0,0.802831,93.4662,1.68467,327.209,-9.27921,93.4662
2344,2344,165.419,18.8856,8.2986,0.0,0,1.41092,0.0,0.805624,93.5101,1.66788,326.798,-9.27871,93.5101
2345,2345,165.4192,18.9326,8.31822,0.0,0,1.3971,0.0,0.808794,93.4146,1.65179,326.388,-9.27927,93.4146
2346,2346,165.4194,18.9771,8.33409,0.0,0,1.38327,0.0,0.809825,93.3687,1.63831,325.977,-9.27992,93.3687
2347,2347,165.4196,19.0369,8.34489,0.0,0,1.36945,0.0,0.812263,93.4812,1.62587,325.566,-9.28021,93.4812
2348,2348,165.4198,19.1085,8.36105,0.0,0,1.35563,0.0,0.815438,93.5604,1.61112,325.155,-9.28024,93.5604
2349,2349,165.42,19.1777,8.3777,0.0,0,1.3418,0.0,0.81663,93.6175,1.59421,324.744,-9.27997,93.6175
2350,2350,165.4202,19.2386,8.38843,0.0,0,1.32798,0.0,0.818684,93.7325,1.57608,324.333,-9.27873,93.7325
2351,2351,165.4204,19.2933,8.40041,0.0,0,1.31415,0.0,0.8216176,93.795,1.56238,323.922,-9.27862,93.795
2352,2352,165.4206,19.3479,8.41752,0.0,0,1.30033,0.0,0.822822,93.7683,1.55119,323.511,-9.27969,93.7683
2353,2353,165.4208,19.3943,8.42971,0.0,0,1.28651,0.0,0.824653,93.7843,1.53584,323.1,-9.2797,93.7843
2354,2354,165.421,19.4327,8.44065,0.0,0,1.27268,0.0,0.827749,93.7824,1.5207,322.689,-9.27926,93.7824
2355,2355,165.4212,19.4851,8.46173,0.0,0,1.25886,0.0,0.829501,93.6727,1.5058,322.278,-9.27876,93.6727
2356,2356,165.4214,19.5499,8.47725,0.0,0,1.24503,0.0,0.831433,93.7162,1.49248,321.867,-9.27863,93.7162
2357,2357,165.4216,19.6089,8.48578,0.0,0,1.23121,0.0,0.834562,93.8513,1.47995,321.456,-9.27914,93.8513
2358,2358,165.4218,19.675,8.50595,0.0,0,1.21766,0.0,0.836641,93.8175,1.466114,321.0647,-9.27966,93.8175
2359,2359,165.422,19.7519,8.52254,0.0,0,1.20445,0.0,0.838395,93.8952,1.45322,320.703,-9.27972,93.8952
2360,2360,165.4222,19.8201,8.52942,0.0,0,1.1913,0.0,0.841261,94.0987,1.43956,320.34,-9.279952,94.0987
2361,2361,165.4224,19.8746,8.54901,0.0,0,1.17815,0.0,0.843493,94.0135,1.42364,319.978,-9.27988,94.0135
2362,2362,165.4226,19.9232,8.567112,0.0,0,1.165,0.0,0.8450231,93.925,1.40825,319.616,-9.27952,93.925
2363,2363,165.4228,19.9681,8.57149,0.0,0,1.15186,0.0,0.8474288,94.0594,1.39356,319.254,-9.27958,94.0594
2364,2364,165.423,20.0144,8.58721,0.0,0,1.13871,0.0,0.849838,93.9998,1.37804,318.892,-9.27964,93.9998
2365,2365,165.4232,20.0707,8.6066,0.0,0,1.12556,0.0,0.851361,93.9203,1.36518,318.53,-9.27945,93.9203
2366,2366,165.4234,20.1331,8.61146,0.0,0,1.11241,0.0,0.853452,94.1264,1.35152,318.1676,-9.27906,94.1264
2367,2367,165.4236,20.2039,8.62704,0.0,0,1.09926,0.0,0.856099,94.1791,1.3347,317.805,-9.279171,94.1791
2368,2368,165.4238,20.2843,8.6489,0.0,0,1.08612,0.0,0.857734,94.162,1.32096,317.443,-9.27975,94.162
2369,2369,165.424,20.36244,8.65364,0.0,0,1.07297,0.0,0.859724,94.4397,1.30819,317.081,-9.27887,94.4397
2370,2370,165.4242,20.4243,8.66887,0.0,0,1.05982,0.0,0.862943,94.4518,1.29331,316.719,-9.2782,94.4518
2371,2371,165.4244,20.4731,8.692544,0.0,0,1.04667,0.0,0.864895,94.2494,1.27964,316.3569,-9.27856,94.2494
2372,2372,165.4246,20.5208,8.69844,0.0,0,1.03352,0.0,0.866527,94.3624,1.26514,315.995,-9.27854,94.3624
2373,2373,165.4248,20.5671,8.711,0.0,0,1.02038,0.0,0.869761,94.3468,1.25103,315.633,-9.27839,94.3468
2374,2374,165.425,20.62674,8.7334,0.0,0,1.00723,0.0,0.871736,94.2124,1.23632,315.271,-9.27824,94.2124
2375,2375,165.4252,20.6911,8.74015,0.0,0,0.99408,0.0,0.873036,94.383,1.22083,314.908,-9.27843,94.383
2376,2376,165.4254,20.75341,8.75237,0.0,0,0.980932,0.0,0.876258,94.4432,1.20795,314.546,-9.27874,94.4432
2377,2377,165.4256,20.8269,8.77521,0.0,0,0.967784,0.0,0.878426,94.3574,1.19578,314.184,-9.278841,94.3574
2378,2378,165.4258,20.9071,8.78208,0.0,0,0.954636,0.0,0.879527,94.5937,1.18143,313.822,-9.28001,94.5937
2379,2379,165.426,20.9834,8.79169,0.0,0,0.941488,0.0,0.882734,94.7611,1.16639,313.46,-9.28049,94.7611
2380,2380,165.4262,21.049,8.8123,0.0,0,0.92834,0.0,0.885063,94.674,1.15202,313.098,-9.27978,94.674
2381,2381,165.4264,21.104,8.82124,0.0,0,0.915192,0.0,0.885865,94.7546,1.1377,312.736,-9.27904,94.7546
2382,2382,165.4266,21.1595,8.83106,0.0,0,0.9020443,0.0,0.888869,94.82,1.12285,312.373,-9.27843,94.82
2383,2383,165.4268,21.2111,8.8522,0.0,0,0.88916,0.0,0.891569,94.6554,1.10897,312.011,-9.278327,94.6554
2384,2384,165.427,21.2633,8.86351,0.0,0,0.876596,0.0,0.892481,94.6756,1.09666,311.649,-9.27847,94.6756
2385,2385,165.4272,21.3335,8.87248,0.0,0,0.864089,0.0,0.895491,94.819,1.08356,311.287,-9.27886,94.819
2386,2386,165.4274,21.4071,8.89252,0.0,0,0.851585,0.0,0.898508,94.767,1.07115,310.925,-9.278738,94.767
2387,2387,165.4276,21.4818,8.90512,0.0,0,0.839081,0.0,0.899255,94.8585,1.05678,310.563,-9.27835,94.8585
2388,2388,165.4278,21.5597,8.91343,0.0,0,0.826577,0.0,0.901834,95.0443,1.04301,310.201,-9.27833,95.0443
2389,2389,165.428,21.6362,8.929863,0.0,0,0.8140732,0.0,0.904843,95.0676,1.02934,309.838,-9.278389,95.0676
2390,2390,165.4282,21.7028,8.94355,0.0,0,0.801569,0.0,0.905593,95.0976,1.01387,309.476,-9.27835,95.0976
2391,2391,165.4284,21.7562,8.95276,0.0,0,0.789065,0.0,0.908029,95.1545,1.00073,309.114,-9.27783,95.1545
2392,2392,165.4286,21.8066,8.96725,0.0,0,0.776561,0.0,0.911299,95.0957,0.987219,308.752,-9.27783,95.0957
2393,2393,165.4288,21.8692,8.9826,0.0,0,0.764057,0.0,0.912315,95.072,0.973799,308.39,-9.278409,95.072
2394,2394,165.429,21.9402,8.99287,0.0,0,0.751553,0.0,0.914537,95.1816,0.96056,308.028,-9.27875,95.1816
2395,2395,165.4292,22.0055,9.00517,0.0,0,0.739049,0.0,0.917763,95.2253,0.948736,307.666,-9.278738,95.2253
2396,2396,165.4294,22.0827,9.02222,0.0,0,0.726545,0.0,0.919045,95.2268,0.93565,307.3035,-9.27851,95.2268
2397,2397,165.4296,22.1693,9.03371,0.0,0,0.714041,0.0,0.921013,95.375,0.920518,306.941,-9.2782,95.375
2398,2398,165.4298,22.2483,9.04338,0.0,0,0.701537,0.0,0.924132,95.5248,0.907847,306.579,-9.27736,95.5248
2399,2399,165.43,22.32163,9.06144,0.0,0,0.689033,0.0,0.925697,95.4834,0.895389,306.2171,-9.27687,95.4834
2400,2400,165.4302,22.3879,9.074111,0.0,0,0.676529,0.0,0.927545,95.5162,0.882789,305.855,-9.27735,95.5162
2401,2401,165.4304,22.445,9.08169,0.0,0,0.664025,0.0,0.930641,95.6095,0.868923,305.493,-9.277463,95.6095
2402,2402,165.4306,22.5031,9.100275,0.0,0,0.651521,0.0,0.9326061,95.4871,0.856178,305.131,-9.27747,95.4871
2403,2403,165.4308,22.5673,9.11494,0.0,0,0.639017,0.0,0.934239,95.4669,0.845724,304.769,-9.27757,95.4669
2404,2404,165.431,22.634,9.12041,0.0,0,0.626513,0.0,0.937061,95.6396,0.833508,304.4064,-9.27782,95.6396
2405,2405,165.4312,22.6996,9.13721,0.0,0,0.614009,0.0,0.9392,95.5799,0.820644,304.044,-9.27839,95.5799
2406,2406,165.4314,22.7779,9.1531,0.0,0,0.601505,0.0,0.940585,95.5894,0.807428,303.682,-9.2782,95.5894
2407,2407,165.4316,22.8764,9.15694,0.0,0,0.589001,0.0,0.943082,95.9253,0.793536,303.32,-9.2773,95.9253
2408,2408,165.4318,22.9614,9.17319,0.0,0,0.576745,0.0,0.945561,95.9517,0.779795,303.0405,-9.276722,95.9517
2409,2409,165.432,23.0294,9.19213,0.0,0,0.564788,0.0,0.947127,95.8503,0.767799,303.092,-9.276823,95.8503
2410,2410,165.4322,23.1012,9.19666,0.0,0,0.552886,0.0,0.9494611,96.0566,0.755595,303.143,-9.2767,96.0566
2411,2411,165.4324,23.1653,9.21169,0.0,0,0.540986,0.0,0.952348,96.0155,0.743258,303.194,-9.27696,96.0155
2412,2412,165.4326,23.2269,9.23107,0.0,0,0.529086,0.0,0.953934,95.8726,0.730405,303.245,-9.2773,95.8726
2413,2413,165.4328,23.2929,9.23376,0.0,0,0.517186,0.0,0.955714,96.0898,0.716238,303.296,-9.2777,96.0898
2414,2414,165.433,23.3696,9.24598,0.0,0,0.5052858,0.0,0.958641,96.1536,0.704085,303.347,-9.27834,96.1536
2415,2415,165.4332,23.4503,9.26619,0.0,0,0.493386,0.0,0.9602387,96.0667,0.691599,303.398,-9.27811,96.0667
2416,2416,165.4334,23.5331,9.26952,0.0,0,0.481486,0.0,0.961645,96.3365,0.6762889,303.45,-9.27804,96.3365
2417,2417,165.4336,23.62,9.28227,0.0,0,0.469586,0.0,0.9650349,96.4262,0.661434,303.5007,-9.27818,96.4262
2418,2418,165.4338,23.70001,9.30484,0.0,0,0.4576858,0.0,0.967152,96.28,0.649796,303.552,-9.27744,96.28
2419,2419,165.434,23.7757,9.30978,0.0,0,0.445786,0.0,0.96841,96.4835,0.638672,303.603,-9.27696,96.4835
2420,2420,165.4342,23.8441,9.32065,0.0,0,0.433886,0.0,0.971806,96.5321,0.627209,303.654,-9.27714,96.5321
2421,2421,165.4344,23.9096,9.34223,0.0,0,0.421986,0.0,0.973995,96.341,0.615005,303.705,-9.27705,96.341
2422,2422,165.4346,23.9795,9.34747,0.0,0,0.4100858,0.0,0.974903,96.5115,0.600658,303.756,-9.27704,96.5115
2423,2423,165.4348,24.0495,9.35643,0.0,0,0.398186,0.0,0.978181,96.6025,0.587098,303.808,-9.27718,96.6025
2424,2424,165.435,24.1276,9.3772,0.0,0,0.386286,0.0,0.980483,96.4736,0.575845,303.859,-9.27699,96.4736
2425,2425,165.4352,24.2089,9.38327,0.0,0,0.374386,0.0,0.980895,96.6687,0.565157,303.91,-9.27683,96.6687
2426,2426,165.4354,24.2936,9.3896,0.0,0,0.362486,0.0,0.983824,96.8707,0.550961,303.961,-9.27678,96.8707